roll,pitch,yaw,ax,ay,az,wx,wy,wz,x_q,y_q,z_q,w_q,roll_xi,pitch_yi,yaw_zi,velocity_y
3.637077, -2.442305, -30.581253, 0.043945,-0.064941, 1.029785, 0.427246, 0.366211, 0.183105, 0.024986, 0.028914,-0.262870,-0.964074,-0.063479,-0.042626,0.533744, 0.000000
3.735403, -2.430792, -30.588855, 0.043457,-0.065430, 1.036621, 0.488281, 0.427246, 0.061035, 0.025838, 0.029044,-0.262913,-0.964036,-0.065195,-0.042425,0.533876, 0.000000
3.764532, -2.455110, -30.592981, 0.044922,-0.069824, 1.037598, 0.305176, 0.427246, 0.244141, 0.026026, 0.029316,-0.262932,-0.964018,-0.065703,-0.042850,0.533948, 0.000000
3.817493, -2.448649, -30.599005, 0.046387,-0.074707, 1.039062, 0.000000, 0.122070, 0.366211, 0.026485, 0.029385,-0.262972,-0.963992,-0.066628,-0.042737,0.534053, 0.000000
3.809522, -2.490032, -30.601276, 0.043457,-0.073242, 1.040527, -0.122070, 0.244141, 0.122070, 0.026322, 0.029715,-0.262979,-0.963985,-0.066489,-0.043459,0.534093, 0.000000
3.745451, -2.402174, -30.601710, 0.041992,-0.062500, 1.037598, 0.000000, 0.244141, 0.122070, 0.025986, 0.028829,-0.263028,-0.964007,-0.065370,-0.041926,0.534101, 0.000000
3.761504, -2.550949, -30.604988, 0.049316,-0.066895, 1.037109, 0.732422, 0.610352, 0.183105, 0.025777, 0.030118,-0.263003,-0.963980,-0.065651,-0.044522,0.534158, 0.000000
3.745956, -2.404119, -30.607918, 0.043457,-0.067871, 1.036621, 0.671387, 0.671387, 0.244141, 0.025984, 0.028848,-0.263079,-0.963993,-0.065379,-0.041960,0.534209, 0.000000
3.738148, -2.421420, -30.610835, 0.044922,-0.070312, 1.041992, 0.122070, 0.366211, 0.183105, 0.025877, 0.028977,-0.263100,-0.963986,-0.065243,-0.042262,0.534260, 0.000000
3.673926, -2.412437, -30.611839, 0.044922,-0.068848, 1.037109, 0.000000, 0.183105, 0.183105, 0.025358, 0.028754,-0.263128,-0.963999,-0.064122,-0.042105,0.534277, 0.000000
3.664103, -2.400254, -30.614356, 0.041992,-0.063477, 1.037598, 0.183105, 0.244141, 0.122070, 0.025303, 0.028629,-0.263155,-0.963997,-0.063951,-0.041892,0.534321, 0.000000
3.811439, -2.462441, -30.623782, 0.044922,-0.069336, 1.032227, 0.610352, 0.549316, 0.183105, 0.026396, 0.029493,-0.263177,-0.963935,-0.066522,-0.042978,0.534486, 0.000000
3.703126, -2.399963, -30.621698, 0.043457,-0.067383, 1.037109, 0.488281, 0.488281, 0.244141, 0.025630, 0.028718,-0.263207,-0.963971,-0.064632,-0.041887,0.534449, 0.000000
3.729296, -2.503067, -30.628443, 0.047852,-0.069824, 1.039062, 0.610352, 0.671387, 0.244141, 0.025610, 0.029647,-0.263224,-0.963939,-0.065089,-0.043687,0.534567, 0.000000
3.656289, -2.521813, -30.628139, 0.045898,-0.066406, 1.039062, -0.122070, 0.183105, 0.122070, 0.024953, 0.029637,-0.263234,-0.963954,-0.063814,-0.044014,0.534562, 0.000000
3.725362, -2.405258, -30.634515, 0.042969,-0.067383, 1.032715, 0.488281, 0.183105, 0.183105, 0.025801, 0.028817,-0.263308,-0.963936,-0.065020,-0.041980,0.534673, 0.000000
3.684969, -2.476432, -30.636441, 0.046875,-0.063477, 1.039551, 0.244141, 0.305176, 0.183105, 0.025297, 0.029323,-0.263311,-0.963933,-0.064315,-0.043222,0.534707, 0.000000
3.732259, -2.622442, -30.640980, 0.047852,-0.067871, 1.039551, 0.305176, 0.549316, 0.122070, 0.025356, 0.030660,-0.263290,-0.963896,-0.065140,-0.045770,0.534786, 0.000000
3.727236, -2.511837, -30.644334, 0.044922,-0.071777, 1.038574, -0.122070, 0.122070, 0.183105, 0.025568, 0.029719,-0.263356,-0.963902,-0.065053,-0.043840,0.534845, 0.000000
3.736603, -2.522102, -30.648036, 0.044922,-0.069824, 1.038574, -0.122070, 0.061035, 0.183105, 0.025622, 0.029828,-0.263381,-0.963890,-0.065216,-0.044019,0.534909, 0.000000
3.718538, -2.455074, -30.650023, 0.044434,-0.066895, 1.035156, 0.000000, 0.183105, 0.122070, 0.025625, 0.029223,-0.263424,-0.963897,-0.064901,-0.042849,0.534944, 0.000000
3.773016, -2.432658, -30.653937, 0.043457,-0.067383, 1.041016, 0.671387, 0.549316, 0.122070, 0.026134, 0.029161,-0.263450,-0.963878,-0.065852,-0.042458,0.535012, 0.000000
3.777476, -2.459417, -30.655665, 0.046387,-0.069336, 1.042480, 0.061035, 0.366211, 0.122070, 0.026109, 0.029397,-0.263455,-0.963870,-0.065929,-0.042925,0.535042, 0.000000
3.803364, -2.356343, -30.660292, 0.040039,-0.068848, 1.039551, 0.244141, 0.427246, 0.183105, 0.026564, 0.028590,-0.263521,-0.963864,-0.066381,-0.041126,0.535123, 0.000000
3.818736, -2.517641, -30.664093, 0.049316,-0.069824, 1.040039, -0.244141, 0.183105, 0.183105, 0.026319, 0.029983,-0.263496,-0.963835,-0.066650,-0.043941,0.535189, 0.000000
3.775064, -2.503270, -30.664985, 0.045898,-0.066406, 1.033203, 0.549316, 0.427246, 0.122070, 0.025985, 0.029762,-0.263520,-0.963845,-0.065887,-0.043690,0.535205, 0.000000
3.720697, -2.511880, -30.664995, 0.044922,-0.063965, 1.036621, 0.549316, 0.427246, 0.122070, 0.025508, 0.029709,-0.263531,-0.963856,-0.064938,-0.043841,0.535205, 0.000000
3.752250, -2.455231, -30.668714, 0.043945,-0.068848, 1.035156, 0.549316, 0.610352, 0.122070, 0.025903, 0.029306,-0.263573,-0.963846,-0.065489,-0.042852,0.535270, 0.000000
3.691403, -2.485704, -30.669308, 0.045410,-0.067383, 1.041504, -0.122070, 0.061035, 0.244141, 0.025321, 0.029423,-0.263583,-0.963855,-0.064427,-0.043384,0.535280, 0.000000
3.682144, -2.489235, -30.672843, 0.043945,-0.068359, 1.040039, -0.183105, 0.122070, 0.122070, 0.025234, 0.029432,-0.263614,-0.963849,-0.064266,-0.043445,0.535342, 0.000000
3.630862, -2.515414, -30.674711, 0.046875,-0.066406, 1.031738, 0.366211, 0.366211, 0.183105, 0.024742, 0.029534,-0.263635,-0.963853,-0.063370,-0.043902,0.535375, 0.000000
3.675600, -2.438020, -30.679540, 0.044434,-0.066895, 1.038086, 0.732422, 0.610352, 0.305176, 0.025296, 0.028988,-0.263689,-0.963840,-0.064151,-0.042551,0.535459, 0.000000
3.736414, -2.449430, -30.685721, 0.044922,-0.068848, 1.032715, 0.671387, 0.549316, 0.183105, 0.025779, 0.029225,-0.263721,-0.963811,-0.065213,-0.042751,0.535567, 0.000000
3.777732, -2.494828, -30.690731, 0.047852,-0.070801, 1.039551, 0.000000, 0.244141, 0.183105, 0.026020, 0.029703,-0.263738,-0.963786,-0.065934,-0.043543,0.535654, 0.000000
3.843876, -2.454403, -30.696441, 0.044434,-0.070312, 1.038574, 0.000000, 0.122070, 0.122070, 0.026669, 0.029517,-0.263782,-0.963762,-0.067088,-0.042837,0.535754, 0.000000
3.847438, -2.481304, -30.700765, 0.047852,-0.065918, 1.039551, -0.183105, 0.244141, 0.183105, 0.026635, 0.029752,-0.263809,-0.963748,-0.067150,-0.043307,0.535829, 0.000000
3.830614, -2.409261, -30.703640, 0.042480,-0.069336, 1.035645, 0.732422, 0.488281, 0.305176, 0.026660, 0.029108,-0.263861,-0.963753,-0.066857,-0.042050,0.535880, 0.000000
3.849257, -2.539406, -30.706526, 0.049316,-0.071289, 1.038086, 0.366211, 0.427246, 0.061035, 0.026515, 0.030246,-0.263838,-0.963728,-0.067182,-0.044321,0.535930, 0.000000
3.832458, -2.490453, -30.709637, 0.045410,-0.070801, 1.038574, 0.366211, 0.427246, 0.244141, 0.026486, 0.029796,-0.263884,-0.963730,-0.066889,-0.043467,0.535984, 0.000000
3.822125, -2.568047, -30.713226, 0.047852,-0.069824, 1.041504, -0.305176, 0.122070, 0.183105, 0.026218, 0.030426,-0.263892,-0.963716,-0.066709,-0.044821,0.536047, 0.000000
3.843981, -2.501940, -30.716317, 0.043457,-0.070312, 1.035156, 0.549316, 0.427246, 0.122070, 0.026554, 0.029921,-0.263934,-0.963711,-0.067090,-0.043667,0.536101, 0.000000
3.724949, -2.474406, -30.715982, 0.045898,-0.064453, 1.035645, 0.610352, 0.427246, 0.122070, 0.025617, 0.029415,-0.263971,-0.963742,-0.065013,-0.043187,0.536095, 0.000000
3.678045, -2.362715, -30.716361, 0.042480,-0.066406, 1.034668, 0.610352, 0.610352, 0.122070, 0.025481, 0.028368,-0.264022,-0.963763,-0.064194,-0.041237,0.536102, 0.000000
3.754138, -2.500338, -30.721993, 0.047363,-0.068359, 1.039551, -0.122070, 0.061035, 0.183105, 0.025801, 0.029702,-0.264005,-0.963719,-0.065522,-0.043639,0.536200, 0.000000
3.736278, -2.590448, -30.724342, 0.047363,-0.067871, 1.038086, -0.061035, 0.122070, 0.061035, 0.025442, 0.030419,-0.264001,-0.963707,-0.065210,-0.045212,0.536241, 0.000000
3.769429, -2.431544, -30.727184, 0.041016,-0.068848, 1.037109, 0.244141, 0.183105, 0.183105, 0.026088, 0.029160,-0.264068,-0.963710,-0.065789,-0.042438,0.536290, 0.000000
3.790002, -2.481905, -30.730527, 0.043457,-0.064453, 1.037598, 0.732422, 0.549316, 0.061035, 0.026143, 0.029632,-0.264074,-0.963693,-0.066148,-0.043317,0.536349, 0.000000
3.686776, -2.437961, -30.728540, 0.043457,-0.065430, 1.034668, 0.732422, 0.610352, 0.122070, 0.025377, 0.029024,-0.264098,-0.963725,-0.064346,-0.042550,0.536314, 0.000000
3.749669, -2.448049, -30.733922, 0.045410,-0.069336, 1.041992, -0.061035, 0.366211, 0.122070, 0.025882, 0.029255,-0.264124,-0.963697,-0.065444,-0.042727,0.536408, 0.000000
3.690688, -2.483651, -30.733437, 0.045898,-0.064941, 1.038086, -0.061035, 0.183105, 0.122070, 0.025303, 0.029418,-0.264123,-0.963708,-0.064415,-0.043348,0.536400, 0.000000
3.636198, -2.546566, -30.734861, 0.048828,-0.065430, 1.042480, -0.061035, 0.122070, 0.244141, 0.024699, 0.029822,-0.264129,-0.963710,-0.063464,-0.044446,0.536425, 0.000000
3.702624, -2.518363, -30.740346, 0.045898,-0.066895, 1.032715, 0.732422, 0.427246, 0.122070, 0.025321, 0.029739,-0.264167,-0.963686,-0.064623,-0.043954,0.536520, 0.000000
3.798354, -2.558226, -30.747326, 0.047852,-0.070312, 1.038574, 0.366211, 0.427246, 0.183105, 0.026032, 0.030296,-0.264188,-0.963644,-0.066294,-0.044649,0.536642, 0.000000
3.821736, -2.507682, -30.750331, 0.045410,-0.069336, 1.040039, 0.305176, 0.549316, 0.122070, 0.026345, 0.029926,-0.264224,-0.963637,-0.066702,-0.043767,0.536695, 0.000000
3.765767, -2.472448, -30.750700, 0.045410,-0.070801, 1.038574, -0.183105, 0.183105, 0.183105, 0.025956, 0.029501,-0.264253,-0.963653,-0.065725,-0.043152,0.536701, 0.000000
3.714417, -2.516660, -30.750174, 0.047363,-0.063477, 1.032715, 0.427246, 0.305176, 0.000000, 0.025422, 0.029754,-0.264247,-0.963661,-0.064829,-0.043924,0.536692, 0.000000
3.706196, -2.454510, -30.752302, 0.042480,-0.065918, 1.034180, 0.671387, 0.427246, 0.122070, 0.025496, 0.029213,-0.264288,-0.963664,-0.064685,-0.042839,0.536729, 0.000000
3.829165, -2.449239, -30.760443, 0.044434,-0.069336, 1.035156, 0.610352, 0.488281, 0.183105, 0.026541, 0.029454,-0.264326,-0.963618,-0.066832,-0.042747,0.536871, 0.000000
3.744894, -2.433210, -30.759986, 0.043457,-0.068359, 1.040039, -0.244141, 0.183105, 0.244141, 0.025869, 0.029125,-0.264349,-0.963640,-0.065361,-0.042468,0.536863, 0.000000
3.738892, -2.421152, -30.763971, 0.044434,-0.068848, 1.039551, -0.122070, 0.183105, 0.122070, 0.025846, 0.029011,-0.264388,-0.963633,-0.065256,-0.042257,0.536933, 0.000000
3.679081, -2.426321, -30.764613, 0.042969,-0.064453, 1.034668, 0.244141, 0.122070, 0.183105, 0.025330, 0.028916,-0.264407,-0.963645,-0.064212,-0.042347,0.536944, 0.000000
3.776225, -2.470038, -30.771505, 0.046875,-0.067871, 1.035156, 0.549316, 0.488281, 0.183105, 0.026044, 0.029509,-0.264426,-0.963603,-0.065908,-0.043110,0.537064, 0.000000
3.858853, -2.554112, -30.779216, 0.044922,-0.070801, 1.036621, 0.671387, 0.488281, 0.244141, 0.026542, 0.030408,-0.264441,-0.963557,-0.067350,-0.044578,0.537199, 0.000000
3.778723, -2.468156, -30.778485, 0.042480,-0.069336, 1.042480, 0.000000, 0.366211, 0.183105, 0.026068, 0.029501,-0.264485,-0.963586,-0.065951,-0.043077,0.537186, 0.000000
3.771344, -2.493335, -30.781723, 0.046387,-0.065918, 1.035645, -0.183105, 0.183105, 0.122070, 0.025947, 0.029696,-0.264506,-0.963578,-0.065822,-0.043517,0.537242, 0.000000
3.759833, -2.411391, -30.786323, 0.041992,-0.069336, 1.043457, 0.000000, 0.244141, 0.061035, 0.026039, 0.028982,-0.264574,-0.963578,-0.065621,-0.042087,0.537323, 0.000000
3.752978, -2.487459, -30.789093, 0.044434,-0.064941, 1.037109, 0.732422, 0.671387, 0.122070, 0.025804, 0.029606,-0.264574,-0.963565,-0.065502,-0.043414,0.537371, 0.000000
3.776283, -2.448623, -30.792832, 0.046387,-0.070312, 1.036621, 0.549316, 0.610352, 0.244141, 0.026089, 0.029334,-0.264612,-0.963556,-0.065909,-0.042737,0.537436, 0.000000
3.743724, -2.462494, -30.794823, 0.047852,-0.066895, 1.041016, 0.366211, 0.671387, 0.183105, 0.025782, 0.029376,-0.264633,-0.963557,-0.065340,-0.042979,0.537471, 0.000000
3.669885, -2.517125, -30.793150, 0.048828,-0.067383, 1.036621, -0.122070, 0.305176, 0.061035, 0.025035, 0.029664,-0.264620,-0.963571,-0.064052,-0.043932,0.537442, 0.000000
3.794264, -2.516285, -30.801865, 0.043945,-0.070312, 1.028320, 0.610352, 0.671387, 0.122070, 0.026081, 0.029947,-0.264661,-0.963523,-0.066222,-0.043917,0.537594, 0.000000
3.691666, -2.302009, -30.801322, 0.035645,-0.064941, 1.059570, 0.488281, 0.488281, 0.183105, 0.025716, 0.027908,-0.264752,-0.963569,-0.064432,-0.040178,0.537585, 0.000000
3.725281, -2.346940, -30.804891, 0.048340,-0.069824, 1.021973, 0.000000, 0.488281, 0.183105, 0.025893, 0.028365,-0.264760,-0.963549,-0.065018,-0.040962,0.537647, 0.000000
3.717039, -2.510858, -30.808347, 0.051758,-0.066406, 0.999023, 0.061035, 0.305176, 0.244141, 0.025442, 0.029724,-0.264738,-0.963526,-0.064875,-0.043823,0.537707, 0.000000
3.654927, -2.414670, -30.809829, 0.038574,-0.068848, 1.063965, 0.244141, 0.122070, 0.061035, 0.025143, 0.028772,-0.264797,-0.963547,-0.063791,-0.042144,0.537733, 0.000000
3.693351, -2.329597, -30.813224, 0.042969,-0.067871, 1.048340, -0.488281, 0.183105, 0.122070, 0.025663, 0.028147,-0.264843,-0.963539,-0.064461,-0.040659,0.537792, 0.000000
3.730534, -2.477313, -30.818473, 0.046387,-0.064453, 1.005371, 0.549316, 0.549316, 0.183105, 0.025631, 0.029476,-0.264830,-0.963504,-0.065110,-0.043237,0.537884, 0.000000
3.621402, -2.382356, -30.817848, 0.042969,-0.065918, 1.055664, 0.671387, 0.488281, 0.305176, 0.024934, 0.028425,-0.264883,-0.963539,-0.063205,-0.041580,0.537873, 0.000000
3.729564, -2.410198, -30.824476, 0.044434,-0.068848, 1.049805, -0.427246, 0.366211, 0.183105, 0.025777, 0.028911,-0.264903,-0.963497,-0.065093,-0.042066,0.537989, 0.000000
3.678536, -2.557718, -30.823927, 0.051270,-0.066406, 1.028809, 0.122070, 0.183105, 0.061035, 0.025006, 0.030032,-0.264864,-0.963494,-0.064203,-0.044641,0.537979, 0.000000
3.658301, -2.471834, -30.827219, 0.044922,-0.066406, 1.041016, 0.244141, 0.061035, 0.183105, 0.025034, 0.029264,-0.264924,-0.963500,-0.063849,-0.043142,0.538036, 0.000000
3.679634, -2.410164, -30.828906, 0.042969,-0.066895, 1.048828, 0.305176, 0.488281, 0.000000, 0.025356, 0.028796,-0.264953,-0.963498,-0.064222,-0.042065,0.538066, 0.000000
3.798811, -2.480591, -30.835886, 0.044922,-0.068848, 1.031250, 0.183105, 0.427246, 0.122070, 0.026193, 0.029665,-0.264958,-0.963448,-0.066302,-0.043294,0.538188, 0.000000
3.799855, -2.467697, -30.839974, 0.044922,-0.071777, 1.040039, 0.488281, 0.488281, 0.061035, 0.026231, 0.029560,-0.264996,-0.963439,-0.066320,-0.043069,0.538259, 0.000000
3.755264, -2.417359, -30.840196, 0.045410,-0.070801, 1.050293, -0.366211, 0.244141, 0.183105, 0.025973, 0.029034,-0.265026,-0.963454,-0.065542,-0.042191,0.538263, 0.000000
3.712276, -2.498291, -30.840179, 0.046387,-0.065918, 1.028809, 0.427246, 0.366211, 0.061035, 0.025423, 0.029614,-0.265011,-0.963455,-0.064791,-0.043603,0.538263, 0.000000
3.664989, -2.567489, -30.842757, 0.047363,-0.063965, 1.033691, 0.854492, 0.305176, 0.122070, 0.024864, 0.030087,-0.265022,-0.963452,-0.063966,-0.044811,0.538308, 0.000000
3.707443, -2.521436, -30.847832, 0.047852,-0.068359, 1.043945, 0.427246, 0.549316, 0.183105, 0.025327, 0.029800,-0.265069,-0.963436,-0.064707,-0.044007,0.538396, 0.000000
3.706844, -2.460644, -30.849000, 0.049316,-0.067871, 1.031250, -0.244141, 0.305176, 0.061035, 0.025463, 0.029287,-0.265098,-0.963440,-0.064697,-0.042946,0.538417, 0.000000
3.743855, -2.357901, -30.855690, 0.041016,-0.069336, 1.033203, 0.244141, 0.061035, 0.244141, 0.026011, 0.028511,-0.265179,-0.963427,-0.065343,-0.041153,0.538533, 0.000000
3.651275, -2.411424, -30.855106, 0.044922,-0.065430, 1.037109, -0.061035, 0.183105, 0.122070, 0.025109, 0.028747,-0.265180,-0.963443,-0.063727,-0.042087,0.538523, 0.000000
3.718213, -2.501005, -30.859976, 0.046387,-0.066406, 1.030762, 0.671387, 0.488281, 0.183105, 0.025462, 0.029655,-0.265175,-0.963408,-0.064895,-0.043651,0.538608, 0.000000
3.755367, -2.560363, -30.864532, 0.044434,-0.071777, 1.034668, 0.183105, 0.366211, 0.244141, 0.025635, 0.030241,-0.265184,-0.963382,-0.065544,-0.044687,0.538688, 0.000000
3.698361, -2.375154, -30.866380, 0.042969,-0.067871, 1.045898, -0.061035, 0.427246, 0.061035, 0.025586, 0.028553,-0.265274,-0.963410,-0.064549,-0.041454,0.538720, 0.000000
3.614664, -2.459782, -30.866014, 0.048828,-0.066895, 1.036133, -0.427246, 0.000000, 0.122070, 0.024685, 0.029071,-0.265265,-0.963421,-0.063088,-0.042931,0.538714, 0.000000
3.691768, -2.481117, -30.871905, 0.042480,-0.067871, 1.041504, 0.488281, 0.244141, 0.061035, 0.025283, 0.029430,-0.265288,-0.963388,-0.064434,-0.043304,0.538816, 0.000000
3.736057, -2.465554, -30.876813, 0.045898,-0.064453, 1.031250, -0.122070, 0.244141, 0.122070, 0.025690, 0.029403,-0.265323,-0.963369,-0.065206,-0.043032,0.538902, 0.000000
3.819873, -2.588858, -30.883192, 0.050293,-0.069336, 1.027832, 0.488281, 0.427246, 0.183105, 0.026106, 0.030634,-0.265314,-0.963321,-0.066669,-0.045184,0.539013, 0.000000
3.776316, -2.439751, -30.884702, 0.042969,-0.070312, 1.055664, 0.183105, 0.183105, 0.244141, 0.026086, 0.029281,-0.265388,-0.963344,-0.065909,-0.042582,0.539040, 0.000000
3.766139, -2.488173, -30.887345, 0.045898,-0.068848, 1.039062, -0.427246, 0.061035, 0.122070, 0.025887, 0.029665,-0.265397,-0.963335,-0.065732,-0.043427,0.539086, 0.000000
3.642262, -2.491424, -30.883698, 0.046875,-0.064941, 1.028809, 0.244141, 0.122070, 0.122070, 0.024839, 0.029404,-0.265397,-0.963371,-0.063569,-0.043484,0.539022, 0.000000
3.748062, -2.525851, -30.891129, 0.047363,-0.067871, 1.030273, 0.549316, 0.488281, 0.244141, 0.025647, 0.029940,-0.265421,-0.963326,-0.065416,-0.044084,0.539152, 0.000000
3.807468, -2.484030, -30.897850, 0.042480,-0.070312, 1.045410, 0.671387, 0.488281, 0.061035, 0.026242, 0.029728,-0.265476,-0.963302,-0.066453,-0.043354,0.539269, 0.000000
3.785760, -2.493283, -30.898119, 0.045410,-0.070312, 1.038086, -0.061035, 0.488281, 0.061035, 0.026038, 0.029755,-0.265480,-0.963305,-0.066074,-0.043516,0.539274, 0.000000
3.740901, -2.522251, -30.899100, 0.046387,-0.066406, 1.028809, 0.122070, 0.122070, 0.183105, 0.025593, 0.029895,-0.265491,-0.963310,-0.065291,-0.044022,0.539291, 0.000000
3.663854, -2.544764, -30.898929, 0.044922,-0.065918, 1.045898, 0.061035, 0.122070, 0.061035, 0.024893, 0.029906,-0.265502,-0.963325,-0.063946,-0.044415,0.539288, 0.000000
3.611273, -2.565323, -30.898984, 0.047363,-0.062988, 1.028809, 0.427246, 0.488281, 0.183105, 0.024403, 0.029957,-0.265510,-0.963334,-0.063029,-0.044773,0.539289, 0.000000
3.708979, -2.425363, -30.905315, 0.043457,-0.067383, 1.033691, 0.793457, 0.549316, 0.183105, 0.025549, 0.029008,-0.265583,-0.963313,-0.064734,-0.042331,0.539400, 0.000000
3.752365, -2.431353, -30.911500, 0.044434,-0.067871, 1.036621, 0.488281, 0.671387, 0.305176, 0.025898, 0.029161,-0.265622,-0.963288,-0.065491,-0.042435,0.539507, 0.000000
3.665409, -2.434829, -30.910356, 0.045898,-0.067383, 1.045898, -0.122070, 0.183105, 0.122070, 0.025159, 0.028988,-0.265633,-0.963310,-0.063973,-0.042496,0.539487, 0.000000
3.725638, -2.435543, -30.915724, 0.045410,-0.066895, 1.037598, 0.061035, 0.305176, 0.122070, 0.025662, 0.029135,-0.265663,-0.963284,-0.065025,-0.042508,0.539581, 0.000000
3.704533, -2.509962, -30.919515, 0.045410,-0.064941, 1.034180, 0.122070, 0.061035, 0.122070, 0.025310, 0.029712,-0.265676,-0.963272,-0.064656,-0.043807,0.539647, 0.000000
3.831532, -2.532170, -30.927827, 0.046387,-0.069824, 1.039551, 0.488281, 0.549316, 0.183105, 0.026324, 0.030195,-0.265705,-0.963222,-0.066873,-0.044195,0.539792, 0.000000
3.868459, -2.562150, -30.932281, 0.047852,-0.072754, 1.037109, 0.000000, 0.305176, 0.183105, 0.026563, 0.030534,-0.265723,-0.963200,-0.067517,-0.044718,0.539870, 0.000000
3.766687, -2.564355, -30.930962, 0.046875,-0.068359, 1.038086, 0.000000, 0.122070, 0.122070, 0.025703, 0.030316,-0.265738,-0.963226,-0.065741,-0.044756,0.539847, 0.000000
3.762761, -2.565189, -30.934111, 0.047363,-0.069824, 1.045410, -0.244141, 0.122070, 0.122070, 0.025667, 0.030314,-0.265765,-0.963219,-0.065673,-0.044771,0.539902, 0.000000
3.735893, -2.636631, -30.936386, 0.047852,-0.066895, 1.025879, 0.610352, 0.671387, 0.244141, 0.025274, 0.030853,-0.265768,-0.963212,-0.065204,-0.046018,0.539942, 0.000000
3.832992, -2.617976, -30.944527, 0.047363,-0.070312, 1.032227, 0.610352, 0.610352, 0.183105, 0.026132, 0.030923,-0.265817,-0.963173,-0.066898,-0.045692,0.540084, 0.000000
3.790380, -2.415700, -30.945897, 0.043457,-0.069824, 1.044922, 0.000000, 0.549316, 0.183105, 0.026245, 0.029125,-0.265906,-0.963201,-0.066155,-0.042162,0.540108, 0.000000
3.723423, -2.523424, -30.945692, 0.048340,-0.067871, 1.030273, 0.000000, 0.366211, 0.122070, 0.025431, 0.029875,-0.265887,-0.963206,-0.064986,-0.044042,0.540104, 0.000000
3.733718, -2.591876, -30.949739, 0.047363,-0.066406, 1.025391, 0.732422, 0.610352, 0.183105, 0.025357, 0.030475,-0.265896,-0.963186,-0.065166,-0.045237,0.540175, 0.000000
3.700909, -2.388807, -30.951999, 0.038086,-0.066895, 1.057617, 0.305176, 0.427246, 0.183105, 0.025554, 0.028693,-0.265989,-0.963210,-0.064593,-0.041693,0.540214, 0.000000
3.716189, -2.427945, -30.955718, 0.044434,-0.067383, 1.036621, 0.183105, 0.366211, 0.183105, 0.025590, 0.029058,-0.266004,-0.963194,-0.064860,-0.042376,0.540279, 0.000000
3.762096, -2.575306, -30.960513, 0.050293,-0.069336, 1.015625, -0.183105, 0.244141, 0.244141, 0.025631, 0.030404,-0.265984,-0.963157,-0.065661,-0.044948,0.540363, 0.000000
3.625559, -2.550001, -30.958304, 0.041992,-0.065430, 1.050293, 0.061035, 0.183105, 0.183105, 0.024543, 0.029874,-0.266010,-0.963195,-0.063278,-0.044506,0.540324, 0.000000
3.644808, -2.471620, -30.961449, 0.044922,-0.066406, 1.040527, 0.000000, 0.366211, 0.061035, 0.024887, 0.029261,-0.266056,-0.963192,-0.063614,-0.043138,0.540379, 0.000000
3.735125, -2.422857, -30.967972, 0.040039,-0.065918, 1.019531, 0.854492, 0.488281, 0.122070, 0.025758, 0.029062,-0.266104,-0.963162,-0.065190,-0.042287,0.540493, 0.000000
3.779076, -2.482741, -30.974006, 0.045410,-0.065918, 1.044434, 0.854492, 0.610352, 0.244141, 0.025986, 0.029669,-0.266124,-0.963132,-0.065957,-0.043332,0.540598, 0.000000
3.810293, -2.521235, -30.977544, 0.046875,-0.070312, 1.043457, -0.244141, 0.305176, 0.061035, 0.026158, 0.030065,-0.266133,-0.963112,-0.066502,-0.044004,0.540660, 0.000000
3.772279, -2.476184, -30.977862, 0.042480,-0.067383, 1.026855, 0.000000, 0.366211, 0.122070, 0.025944, 0.029599,-0.266160,-0.963125,-0.065839,-0.043218,0.540666, 0.000000
3.647617, -2.440630, -30.975755, 0.043945,-0.066406, 1.044434, 0.122070, 0.122070, 0.061035, 0.024979, 0.029010,-0.266185,-0.963161,-0.063663,-0.042597,0.540629, 0.000000
3.620509, -2.499516, -30.978135, 0.044922,-0.064453, 1.037598, 0.610352, 0.610352, 0.183105, 0.024613, 0.029442,-0.266194,-0.963155,-0.063190,-0.043625,0.540670, 0.000000
3.689129, -2.514000, -30.984648, 0.046387,-0.067871, 1.032227, 0.488281, 0.610352, 0.244141, 0.025155, 0.029725,-0.266226,-0.963124,-0.064387,-0.043878,0.540784, 0.000000
3.670068, -2.401381, -30.987742, 0.041992,-0.068848, 1.044922, 0.610352, 0.549316, 0.122070, 0.025257, 0.028735,-0.266293,-0.963133,-0.064055,-0.041912,0.540838, 0.000000
3.610913, -2.439525, -30.988473, 0.051270,-0.070312, 1.039062, -0.305176, 0.183105, 0.183105, 0.024670, 0.028918,-0.266302,-0.963140,-0.063022,-0.042578,0.540851, 0.000000
3.623032, -2.435430, -30.991519, 0.047363,-0.062500, 1.032715, 0.610352, 0.305176, 0.122070, 0.024781, 0.028912,-0.266326,-0.963131,-0.063234,-0.042506,0.540904, 0.000000
3.660060, -2.420600, -30.998380, 0.044922,-0.064453, 1.034668, 0.488281, 0.366211, 0.244141, 0.025125, 0.028875,-0.266379,-0.963108,-0.063880,-0.042247,0.541024, 0.000000
3.740684, -2.430820, -31.003779, 0.047852,-0.066406, 1.038574, 0.610352, 0.549316, 0.122070, 0.025777, 0.029150,-0.266401,-0.963077,-0.065287,-0.042426,0.541118, 0.000000
3.761329, -2.362347, -31.008622, 0.042969,-0.068359, 1.039551, -0.183105, 0.244141, 0.244141, 0.026110, 0.028624,-0.266458,-0.963067,-0.065648,-0.041231,0.541202, 0.000000
3.753793, -2.502141, -31.012488, 0.046875,-0.069336, 1.036621, 0.061035, 0.183105, 0.183105, 0.025719, 0.029782,-0.266447,-0.963046,-0.065516,-0.043671,0.541270, 0.000000
3.735307, -2.470662, -31.014192, 0.046875,-0.069336, 1.037598, -0.061035, 0.244141, 0.183105, 0.025636, 0.029474,-0.266477,-0.963050,-0.065193,-0.043121,0.541300, 0.000000
3.696576, -2.492489, -31.015725, 0.046875,-0.065430, 1.033691, 0.610352, 0.427246, 0.183105, 0.025259, 0.029568,-0.266492,-0.963052,-0.064517,-0.043502,0.541327, 0.000000
3.718136, -2.471752, -31.020786, 0.042480,-0.065918, 1.029297, 0.610352, 0.427246, 0.244141, 0.025488, 0.029445,-0.266536,-0.963038,-0.064894,-0.043140,0.541415, 0.000000
3.765905, -2.438631, -31.025202, 0.045898,-0.067383, 1.041016, -0.061035, 0.366211, 0.122070, 0.025966, 0.029279,-0.266572,-0.963020,-0.065727,-0.042562,0.541492, 0.000000
3.846971, -2.469774, -31.031557, 0.044922,-0.072266, 1.040527, -0.122070, 0.000000, 0.183105, 0.026572, 0.029731,-0.266594,-0.962984,-0.067142,-0.043106,0.541603, 0.000000
3.725780, -2.529857, -31.029331, 0.046387,-0.067871, 1.030762, -0.305176, 0.183105, 0.061035, 0.025414, 0.029953,-0.266587,-0.963010,-0.065027,-0.044154,0.541564, 0.000000
3.765120, -2.465299, -31.033798, 0.041504,-0.063965, 1.033691, 0.610352, 0.671387, 0.122070, 0.025894, 0.029503,-0.266635,-0.962998,-0.065714,-0.043028,0.541642, 0.000000
3.733927, -2.413836, -31.035287, 0.038574,-0.065430, 1.041504, 0.610352, 0.061035, 0.122070, 0.025752, 0.028999,-0.266673,-0.963007,-0.065169,-0.042129,0.541668, 0.000000
3.883976, -2.408264, -31.039979, 0.052734,-0.096680, 1.102539, -1.220703, 0.183105, -0.122070, 0.027025, 0.029302,-0.266676,-0.962962,-0.067788,-0.042032,0.541750, 0.030770
3.808694, -2.392712, -31.036489, 0.065430,-0.034668, 1.076172, 1.403809, 1.708984, 0.793457, 0.026430, 0.028995,-0.266671,-0.962989,-0.066474,-0.041761,0.541689, 0.068624
3.735271, -2.356867, -31.048411, 0.060547,-0.143066, 0.995117, 1.159668, -0.366211, 0.915527, 0.025893, 0.028526,-0.266801,-0.962981,-0.065193,-0.041135,0.541897, 0.112289
3.914905, -2.401617, -31.047540, 0.169922,0.061035, 1.225586, -1.770020, 4.272461, -1.220703, 0.027299, 0.029320,-0.266733,-0.962937,-0.068328,-0.041916,0.541882, 0.112287
3.781294, -2.441404, -31.059633, 0.263672,0.004883, 0.954102, 5.249023, 2.319336, 1.342773, 0.026080, 0.029346,-0.266856,-0.962936,-0.065996,-0.042611,0.542093, 0.107155
3.865773, -2.407850, -31.058762, 0.176758,-0.187012, 1.211914, -7.690430, -1.342773, 1.037598, 0.026868, 0.029261,-0.266838,-0.962922,-0.067470,-0.042025,0.542078, 0.107994
3.856770, -2.390233, -31.038231, -0.148926,-0.217773, 0.936035, 0.305176, -6.774902, 0.000000, 0.026839, 0.029087,-0.266674,-0.962974,-0.067313,-0.041717,0.541719, 0.093267
3.743753, -2.296036, -31.048568, 0.236816,0.117676, 1.097656, 2.258301, 10.437012, 0.732422, 0.026107, 0.028035,-0.266820,-0.962985,-0.065341,-0.040073,0.541900, 0.071293
4.082717, -2.277646, -31.061542, 0.104980,-0.368164, 0.969238, -16.235352, -0.854492, 0.061035, 0.028995, 0.028673,-0.266851,-0.962875,-0.071257,-0.039752,0.542126, 0.138431
4.281152, -2.344680, -31.072989, -0.114258,-0.254883, 0.652832, 4.028320, -17.028809, 0.915527, 0.030503, 0.029701,-0.266873,-0.962791,-0.074720,-0.040922,0.542326, 0.127047
4.381076, -2.277931, -31.082497, 0.099609,0.007812, 1.385742, 7.995605, 18.066406, -1.770020, 0.031496, 0.029376,-0.266951,-0.962747,-0.076464,-0.039757,0.542492, 0.134905
4.761841, -2.343545, -31.113834, 0.090332,-0.258789, 1.177734, -6.774902, 0.671387, -0.671387, 0.034533, 0.030823,-0.267090,-0.962560,-0.083110,-0.040903,0.543039, 0.138641
4.978454, -2.392299, -31.138990, 0.165527,-0.344727, 1.128906, -7.934570, 0.793457, 0.915527, 0.036231, 0.031745,-0.267222,-0.962430,-0.086890,-0.041754,0.543478, 0.145251
5.099085, -2.323874, -31.156103, -0.030273,-0.123535, 0.991211, 6.408691, 4.760742, -2.136230, 0.037400, 0.031458,-0.267361,-0.962356,-0.088996,-0.040559,0.543777, 0.152920
5.229183, -2.308728, -31.163848, 0.291504,-0.220215, 1.229492, -1.464844, 8.605957, -0.122070, 0.038526, 0.031637,-0.267397,-0.962296,-0.091266,-0.040295,0.543912, 0.169480
5.315180, -2.295506, -31.167881, 0.157227,-0.582520, 0.978516, -7.629395, -2.990723, 2.014160, 0.039278, 0.031728,-0.267412,-0.962258,-0.092767,-0.040064,0.543982, 0.183373
5.503448, -2.298791, -31.181275, 0.146484,-0.574707, 1.048340, -11.535645, 0.427246, 2.441406, 0.040847, 0.032199,-0.267471,-0.962161,-0.096053,-0.040121,0.544216, 0.191892
5.481496, -2.230680, -31.179650, -0.060059,-0.120117, 0.886230, 7.812500, -2.746582, 0.732422, 0.040824, 0.031576,-0.267494,-0.962176,-0.095670,-0.038933,0.544188, 0.194538
5.305469, -2.253316, -31.203579, 0.040039,-0.007812, 0.956543, 7.446289, -1.159668, 1.647949, 0.039286, 0.031363,-0.267733,-0.962181,-0.092598,-0.039328,0.544605, 0.200832
5.397811, -2.361029, -31.244079, 0.061035,-0.105957, 1.053223, -3.967285, -3.662109, 0.793457, 0.039796, 0.032497,-0.268000,-0.962048,-0.094210,-0.041208,0.545312, 0.214970
5.429854, -2.474837, -31.241350, 0.105957,-0.007812, 1.091309, 1.831055, -1.220703, -1.037598, 0.039798, 0.033526,-0.267917,-0.962036,-0.094769,-0.043194,0.545264, 0.228856
5.516012, -2.517559, -31.212325, 0.094238,-0.192383, 0.996094, 0.061035, 2.014160, -1.770020, 0.040430, 0.034075,-0.267629,-0.962070,-0.096273,-0.043940,0.544758, 0.238329
5.533824, -2.565051, -31.154979, 0.030762,-0.219727, 0.965332, -3.479004, 1.770020, -2.380371, 0.040485, 0.034495,-0.267120,-0.962194,-0.096583,-0.044769,0.543757, 0.243482
5.547678, -2.525952, -31.121176, 0.046875,-0.197266, 0.900391, 3.906250, -0.183105, -1.647949, 0.040703, 0.034187,-0.266850,-0.962271,-0.096825,-0.044086,0.543167, 0.248907
5.511473, -2.533314, -31.091267, 0.059082,-0.094727, 0.895020, 7.873535, -2.014160, -1.159668, 0.040390, 0.034154,-0.266606,-0.962353,-0.096193,-0.044215,0.542645, 0.254951
5.451223, -2.479631, -31.066245, 0.048828,-0.032715, 1.065430, 2.380371, -1.220703, -0.244141, 0.040018, 0.033555,-0.266438,-0.962436,-0.095142,-0.043278,0.542208, 0.267758
5.571517, -2.274767, -31.062143, -0.012695,-0.116699, 1.082031, -3.173828, 2.990723, 0.366211, 0.041509, 0.032113,-0.266462,-0.962416,-0.097241,-0.039702,0.542137, 0.267726
5.654622, -2.145366, -31.081008, 0.013672,-0.177246, 1.026855, -3.479004, 1.220703, 1.098633, 0.042505, 0.031227,-0.266657,-0.962347,-0.098692,-0.037444,0.542466, 0.272325
5.690758, -2.124394, -31.096543, 0.043457,-0.383301, 0.766602, -6.286621, 0.061035, 0.793457, 0.042853, 0.031141,-0.266787,-0.962299,-0.099322,-0.037078,0.542737, 0.276179
5.863183, -2.128169, -31.103524, 0.191895,0.085938, 1.342285, 1.708984, 5.859375, -0.366211, 0.044290, 0.031577,-0.266797,-0.962217,-0.102332,-0.037144,0.542859, 0.289120
5.905476, -2.159141, -31.143996, 0.230957,-0.313965, 1.138672, 3.784180, 4.150391, 2.197266, 0.044561, 0.031951,-0.267110,-0.962105,-0.103070,-0.037684,0.543565, 0.302237
5.809571, -2.118447, -31.160091, 0.102051,-0.433105, 0.930176, -5.187988, 1.159668, 2.075195, 0.043847, 0.031392,-0.267291,-0.962106,-0.101396,-0.036974,0.543846, 0.297794
5.811215, -2.162699, -31.157305, 0.072754,-0.145508, 1.004395, -4.577637, -3.784180, -0.610352, 0.043758, 0.031766,-0.267246,-0.962110,-0.101425,-0.037746,0.543798, 0.295117
5.944510, -2.217388, -31.149826, 0.171387,-0.002930, 1.130859, 0.732422, 2.136230, -0.976562, 0.044751, 0.032533,-0.267120,-0.962074,-0.103751,-0.038701,0.543667, 0.312175
6.016492, -2.243106, -31.080711, 0.096680,-0.073730, 1.190430, -3.112793, 4.028320, -3.540039, 0.045315, 0.032889,-0.266507,-0.962205,-0.105008,-0.039150,0.542461, 0.325150
5.983607, -2.112310, -30.992776, 0.105957,-0.324219, 0.791504, 1.464844, 6.286621, -2.990723, 0.045369, 0.031681,-0.265841,-0.962427,-0.104434,-0.036867,0.540926, 0.313159
5.917672, -2.024053, -30.918470, -0.020508,0.182129, 1.263184, 1.220703, 6.713867, -3.540039, 0.045042, 0.030757,-0.265277,-0.962628,-0.103283,-0.035326,0.539629, 0.319908
6.079144, -1.945514, -30.880685, -0.121094,-0.145020, 1.061523, -2.624512, -5.676270, -1.403809, 0.046591, 0.030456,-0.264954,-0.962653,-0.106101,-0.033956,0.538970, 0.334631
5.988771, -2.072102, -30.881157, 0.143066,-0.088867, 0.895996, 2.624512, -1.892090, -0.610352, 0.045537, 0.031311,-0.264921,-0.962685,-0.104524,-0.036165,0.538978, 0.325423
6.102563, -2.056489, -30.849697, 0.022461,0.072266, 1.311035, 1.708984, 1.403809, -1.037598, 0.046538, 0.031430,-0.264634,-0.962713,-0.106510,-0.035893,0.538429, 0.337436
5.772334, -1.998903, -30.833608, 0.042480,-0.019531, 1.043457, 7.995605, -3.417969, -0.061035, 0.043902, 0.030177,-0.264615,-0.962882,-0.100746,-0.034887,0.538148, 0.337994
5.551409, -2.053135, -30.823728, 0.085938,-0.016602, 0.984863, -0.976562, 1.098633, -0.793457, 0.041922, 0.030119,-0.264565,-0.962985,-0.096890,-0.035834,0.537976, 0.337896
5.566883, -1.967299, -30.801872, -0.017578,0.002441, 1.055664, -2.319336, 1.281738, -0.488281, 0.042257, 0.029426,-0.264416,-0.963033,-0.097160,-0.034336,0.537594, 0.342216
5.588510, -2.026225, -30.811550, 0.039062,-0.126953, 1.023926, 3.112793, 4.211426, 1.220703, 0.042299, 0.029974,-0.264465,-0.963001,-0.097538,-0.035364,0.537763, 0.345417
5.321167, -1.933491, -30.831044, 0.073730,-0.060059, 1.046387, -1.464844, 2.685547, 1.159668, 0.040263, 0.028585,-0.264738,-0.963055,-0.092872,-0.033746,0.538103, 0.344420
5.277936, -1.825963, -30.832280, 0.004395,-0.111816, 1.045898, -0.854492, 1.586914, 0.549316, 0.040149, 0.027582,-0.264805,-0.963071,-0.092117,-0.031869,0.538125, 0.342640
5.307282, -1.735741, -30.829179, -0.038086,-0.087402, 0.975098, -1.403809, -1.525879, -0.732422, 0.040606, 0.026891,-0.264810,-0.963070,-0.092630,-0.030294,0.538071, 0.343206
5.227659, -1.840732, -30.811192, 0.047363,-0.018066, 1.061523, -2.319336, -0.183105, -1.708984, 0.039697, 0.027583,-0.264633,-0.963137,-0.091240,-0.032127,0.537757, 0.344936
5.484338, -1.834639, -30.790035, 0.067871,-0.318848, 0.975098, -4.821777, -1.525879, -1.098633, 0.041874, 0.028116,-0.264396,-0.963094,-0.095720,-0.032020,0.537388, 0.353553
5.338746, -1.747672, -30.761844, -0.008789,-0.127930, 1.025391, 6.286621, 2.197266, -1.159668, 0.040859, 0.027040,-0.264232,-0.963214,-0.093179,-0.030503,0.536895, 0.338715
5.291386, -1.759054, -30.751233, 0.069336,-0.023438, 1.054688, 0.549316, 0.793457, 0.122070, 0.040437, 0.027022,-0.264149,-0.963255,-0.092352,-0.030701,0.536710, 0.351720
5.211905, -1.645149, -30.779141, -0.029785,-0.127441, 0.957031, 0.671387, -0.732422, 1.953125, 0.040026, 0.025892,-0.264450,-0.963221,-0.090965,-0.028713,0.537197, 0.344971
5.246184, -1.617039, -30.821099, -0.039551,-0.012695, 1.078613, -5.187988, -1.159668, 2.319336, 0.040370, 0.025750,-0.264806,-0.963112,-0.091563,-0.028223,0.537930, 0.349455
5.256310, -1.523343, -30.872090, -0.023926,-0.079102, 1.080566, -4.028320, 2.807617, 1.281738, 0.040661, 0.025004,-0.265272,-0.962991,-0.091740,-0.026587,0.538820, 0.353684
5.223402, -1.556314, -30.896453, 0.051270,-0.104980, 0.954590, -0.061035, -1.770020, 1.037598, 0.040303, 0.025213,-0.265470,-0.962946,-0.091166,-0.027163,0.539245, 0.352021
5.129347, -1.587498, -30.908440, 0.093750,-0.005371, 1.119141, 3.173828, -2.197266, 0.366211, 0.039437, 0.025261,-0.265578,-0.962951,-0.089524,-0.027707,0.539454, 0.352982
4.988550, -1.618627, -30.904420, 0.033203,-0.031738, 1.057129, 0.488281, 0.488281, -0.915527, 0.038183, 0.025195,-0.265563,-0.963008,-0.087067,-0.028250,0.539384, 0.353898
5.010422, -1.663899, -30.892259, 0.088867,-0.082031, 1.012207, -2.685547, 2.136230, -0.244141, 0.038264, 0.025622,-0.265438,-0.963028,-0.087448,-0.029041,0.539172, 0.353773
5.123017, -1.732618, -30.881416, 0.048340,-0.090332, 0.994141, -6.713867, -0.427246, -0.366211, 0.039052, 0.026457,-0.265293,-0.963013,-0.089414,-0.030240,0.538982, 0.351986
5.209121, -1.805198, -30.848703, -0.002441,-0.162598, 0.960449, -3.784180, 1.464844, -2.014160, 0.039615, 0.027254,-0.264968,-0.963058,-0.090916,-0.031507,0.538411, 0.350933
5.104093, -1.907032, -30.803303, 0.049805,-0.086426, 1.042969, 3.112793, 4.272461, -2.380371, 0.038507, 0.027852,-0.264569,-0.963195,-0.089083,-0.033284,0.537619, 0.351422
5.163812, -1.805883, -30.751281, 0.097656,-0.057129, 1.120117, -1.464844, 0.671387, -1.892090, 0.039256, 0.027122,-0.264160,-0.963298,-0.090126,-0.031519,0.536711, 0.351483
5.112234, -1.640554, -30.704897, -0.029297,-0.122559, 1.017578, -2.624512, -3.417969, -1.586914, 0.039216, 0.025598,-0.263850,-0.963426,-0.089225,-0.028633,0.535902, 0.350647
4.997290, -1.758907, -30.685035, 0.143555,-0.046387, 1.055176, -2.990723, -0.061035, -0.976562, 0.037980, 0.026321,-0.263661,-0.963508,-0.087219,-0.030699,0.535555, 0.350442
5.068993, -1.693892, -30.663356, 0.052246,-0.080566, 1.195312, -3.845215, -1.525879, -0.305176, 0.038738, 0.025932,-0.263488,-0.963536,-0.088471,-0.029564,0.535177, 0.350219
4.978400, -1.865518, -30.648804, 0.068848,-0.103516, 1.004883, 5.554199, -4.821777, -0.732422, 0.037583, 0.027162,-0.263318,-0.963594,-0.086889,-0.032559,0.534922, 0.350544
4.805685, -1.963171, -30.650986, 0.036621,-0.045898, 1.034180, -3.356934, -0.610352, 1.159668, 0.035905, 0.027587,-0.263338,-0.963640,-0.083875,-0.034264,0.534961, 0.349854
4.895761, -2.043825, -30.763606, 0.110840,-0.071289, 1.016113, -3.417969, -1.281738, 7.690430, 0.036448, 0.028507,-0.264231,-0.963349,-0.085447,-0.035671,0.536926, 0.349821
4.994126, -2.159800, -31.011637, 0.052734,-0.127930, 0.925293, 0.305176, 0.183105, 14.587402, 0.036941, 0.029789,-0.266244,-0.962737,-0.087164,-0.037696,0.541255, 0.351041
4.926873, -2.249467, -31.473519, 0.075684,-0.115234, 0.984863, 0.183105, 1.525879, 19.287109, 0.036044, 0.030531,-0.270103,-0.961672,-0.085990,-0.039261,0.549317, 0.354398
5.017087, -2.305286, -31.860787, 0.067871,-0.054688, 1.166992, -2.624512, -3.662109, 21.179199, 0.036563, 0.031336,-0.273304,-0.960722,-0.087565,-0.040235,0.556076, 0.358303
5.022484, -2.406396, -32.305873, 0.083008,-0.087891, 1.093262, 0.000000, -6.286621, 23.864746, 0.036240, 0.032337,-0.276990,-0.959645,-0.087659,-0.042000,0.563844, 0.363269
4.866066, -2.715196, -33.039312, 0.066406,-0.075195, 1.000000, 1.037598, -10.070801, 31.433105, 0.033957, 0.034761,-0.283044,-0.957875,-0.084929,-0.047389,0.576645, 0.370975
4.802921, -2.949564, -33.749741, 0.187500,-0.041504, 1.040039, -1.220703, -4.333496, 39.245605, 0.032619, 0.036766,-0.288900,-0.956097,-0.083827,-0.051480,0.589044, 0.378925
4.803195, -3.090118, -34.505921, 0.151367,-0.079102, 1.090332, 1.403809, -3.295898, 40.771484, 0.032014, 0.038151,-0.295144,-0.954154,-0.083832,-0.053933,0.602242, 0.386904
4.736254, -3.275144, -35.533376, 0.116211,-0.060059, 0.975586, 2.746582, -2.014160, 40.039062, 0.030620, 0.039794,-0.303632,-0.951465,-0.082663,-0.057162,0.620174, 0.397747
4.771342, -3.343700, -36.281558, 0.074219,-0.093262, 1.032227, 0.488281, 1.403809, 38.269043, 0.030464, 0.040656,-0.309797,-0.949445,-0.083276,-0.058359,0.633233, 0.404710
4.823759, -3.123226, -37.022545, 0.035156,-0.095703, 1.095215, 0.976562, -2.441406, 39.855957, 0.031246, 0.039175,-0.316005,-0.947433,-0.084190,-0.054511,0.646165, 0.411385
4.825658, -3.122851, -38.022618, 0.019043,-0.072266, 0.986328, 1.892090, -2.441406, 39.489746, 0.030920, 0.039448,-0.324261,-0.944639,-0.084224,-0.054504,0.663620, 0.419407
4.762075, -3.110587, -38.778693, 0.040039,-0.071289, 1.007324, -1.708984, -2.197266, 39.733887, 0.030171, 0.039367,-0.330513,-0.942497,-0.083114,-0.054290,0.676816, 0.426448
4.783407, -3.174694, -39.548175, 0.118164,-0.045898, 1.020996, -0.183105, -5.615234, 40.832520, 0.029892, 0.040157,-0.336800,-0.940244,-0.083486,-0.055409,0.690246, 0.433538
4.782073, -3.401765, -40.565392, 0.118164,-0.072754, 1.028320, 2.563477, -1.708984, 40.100098, 0.028835, 0.042273,-0.345036,-0.937193,-0.083463,-0.059372,0.708000, 0.442639
4.718807, -3.484829, -41.287592, 0.123535,-0.095703, 1.097168, 3.540039, -2.685547, 37.536621, 0.027796, 0.042937,-0.350924,-0.935006,-0.082359,-0.060822,0.720604, 0.448198
4.618829, -3.579140, -41.951234, 0.144043,-0.076660, 1.013184, 3.112793, -0.061035, 33.752441, 0.026437, 0.043553,-0.356330,-0.932970,-0.080614,-0.062468,0.732187, 0.454236
4.701252, -3.675782, -42.640915, 0.117188,-0.072266, 1.035156, 0.061035, 0.610352, 24.353027, 0.026537, 0.044756,-0.361866,-0.930777,-0.082052,-0.064155,0.744224, 0.460759
4.730329, -3.615456, -43.014298, 0.059082,-0.046875, 1.011230, -1.647949, 0.793457, 18.005371, 0.026820, 0.044446,-0.364911,-0.929594,-0.082560,-0.063102,0.750741, 0.464328
4.764891, -3.508004, -43.330283, 0.000488,-0.083008, 1.009766, -3.784180, 1.770020, 15.930176, 0.027325, 0.043761,-0.367507,-0.928589,-0.083163,-0.061226,0.756256, 0.467386
4.769142, -3.287827, -43.686501, 0.093750,-0.083984, 1.117676, 0.244141, 5.676270, 12.817383, 0.027939, 0.042079,-0.370486,-0.927464,-0.083237,-0.057383,0.762473, 0.473355
4.625756, -2.958709, -43.780560, 0.003418,-0.031738, 1.046875, 4.089355, 9.094238, 3.967285, 0.027817, 0.038977,-0.371436,-0.927223,-0.080735,-0.051639,0.764115, 0.474168
4.534192, -2.708591, -43.760544, -0.039551,-0.047852, 1.142090, -4.821777, 4.760742, -1.831055, 0.027897, 0.036653,-0.371405,-0.927328,-0.079137,-0.047274,0.763766, 0.475285
4.556768, -2.507403, -43.670945, 0.008301,-0.063965, 0.990234, -3.723145, 0.488281, -4.821777, 0.028762, 0.035077,-0.370752,-0.927623,-0.079531,-0.043762,0.762202, 0.474508
4.555795, -2.281515, -43.574169, -0.031250,-0.041504, 1.009766, 2.807617, 3.295898, -4.150391, 0.029516, 0.033221,-0.370057,-0.927946,-0.079514,-0.039820,0.760513, 0.474150
4.425592, -2.154408, -43.528321, -0.041504,-0.048340, 0.981445, 0.610352, -2.563477, -1.892090, 0.028887, 0.031760,-0.369771,-0.928131,-0.077241,-0.037602,0.759713, 0.474714
4.450968, -2.271008, -43.543245, 0.079102,-0.083984, 1.082031, -3.356934, -0.244141, 1.403809, 0.028711, 0.032790,-0.369841,-0.928072,-0.077684,-0.039637,0.759973, 0.472115
4.584304, -2.327508, -43.574718, 0.073730,-0.126465, 0.974121, 5.004883, 1.159668, 2.197266, 0.029598, 0.033686,-0.370035,-0.927935,-0.080011,-0.040623,0.760522, 0.472387
4.558996, -2.384285, -43.614590, 0.040039,-0.085449, 0.922363, 5.920410, 1.647949, 2.075195, 0.029197, 0.034074,-0.370343,-0.927811,-0.079570,-0.041614,0.761218, 0.472090
4.581177, -2.449663, -43.664242, 0.105957,-0.097168, 1.055176, -0.976562, -1.403809, 2.319336, 0.029150, 0.034687,-0.370713,-0.927642,-0.079957,-0.042755,0.762085, 0.471392
4.700420, -2.567516, -43.698932, 0.068848,-0.114258, 1.104004, -0.671387, -0.366211, 0.549316, 0.029721, 0.036035,-0.370910,-0.927493,-0.082038,-0.044812,0.762690, 0.470725
4.558216, -2.621550, -43.684742, 0.047852,-0.066895, 1.002441, -0.427246, 1.098633, -0.671387, 0.028399, 0.036008,-0.370818,-0.927572,-0.079556,-0.045755,0.762443, 0.471408
4.604248, -2.766759, -43.671342, 0.078125,-0.083008, 1.023926, -2.075195, 0.732422, -0.915527, 0.028304, 0.037328,-0.370637,-0.927596,-0.080359,-0.048289,0.762209, 0.471132
4.649878, -2.682432, -43.637976, 0.040527,-0.106445, 0.999512, -3.479004, 0.976562, -1.220703, 0.028958, 0.036785,-0.370386,-0.927697,-0.081156,-0.046817,0.761626, 0.470683
4.737636, -2.564456, -43.621372, 0.008301,-0.097168, 1.086426, 1.403809, 1.525879, -0.732422, 0.030057, 0.036110,-0.370272,-0.927735,-0.082687,-0.044758,0.761337, 0.471183
4.698538, -2.404980, -43.622274, 0.020508,-0.090820, 0.983887, 4.394531, 0.976562, 0.122070, 0.030258, 0.034694,-0.370356,-0.927749,-0.082005,-0.041975,0.761352, 0.471352
4.629737, -2.174141, -43.660659, -0.007812,-0.079590, 1.016602, 0.183105, -0.366211, 2.075195, 0.030439, 0.032614,-0.370778,-0.927650,-0.080804,-0.037946,0.762022, 0.470879
4.628667, -2.040878, -43.718309, -0.016113,-0.093750, 1.024414, 0.244141, 0.610352, 2.929688, 0.030847, 0.031548,-0.371296,-0.927466,-0.080785,-0.035620,0.763028, 0.470569
4.520051, -2.000077, -43.770058, 0.037109,-0.055176, 1.035156, -0.061035, -1.342773, 2.685547, 0.030087, 0.030880,-0.371760,-0.927327,-0.078890,-0.034908,0.763932, 0.470207
4.576611, -2.066077, -43.832059, 0.049316,-0.085449, 0.978516, -2.258301, -3.662109, 2.136230, 0.030312, 0.031613,-0.372221,-0.927110,-0.079877,-0.036060,0.765014, 0.470254
4.614414, -2.183254, -43.867867, 0.102539,-0.087402, 1.039062, 2.258301, -3.540039, 1.342773, 0.030226, 0.032693,-0.372455,-0.926982,-0.080537,-0.038105,0.765639, 0.470398
4.475490, -2.328107, -43.882828, 0.023438,-0.072266, 1.035156, 3.112793, 1.098633, 0.183105, 0.028625, 0.033416,-0.372561,-0.926964,-0.078112,-0.040633,0.765900, 0.469233
4.520370, -2.357862, -43.907881, 0.040527,-0.100098, 0.989258, -1.525879, -3.784180, 1.647949, 0.028884, 0.033809,-0.372739,-0.926870,-0.078895,-0.041152,0.766337, 0.468800
4.539443, -2.441170, -43.953121, 0.116211,-0.099609, 1.037598, -2.197266, -1.831055, 2.563477, 0.028752, 0.034556,-0.373066,-0.926715,-0.079228,-0.042606,0.767127, 0.469670
4.600532, -2.485816, -44.010177, 0.102539,-0.066406, 0.987793, 0.183105, 0.610352, 2.868652, 0.029083, 0.035130,-0.373492,-0.926512,-0.080294,-0.043386,0.768123, 0.470641
4.623667, -2.445549, -44.071854, 0.039551,-0.142578, 1.045410, -3.112793, 0.244141, 2.868652, 0.029383, 0.034896,-0.373999,-0.926306,-0.080698,-0.042683,0.769199, 0.472300
4.658989, -2.527980, -44.108798, 0.048340,-0.093750, 1.062012, -0.549316, 0.732422, 1.525879, 0.029387, 0.035686,-0.374254,-0.926173,-0.081315,-0.044122,0.769844, 0.472614
4.432615, -2.404194, -44.129811, 0.032227,-0.046875, 1.010742, 6.286621, 3.234863, 1.892090, 0.027957, 0.033952,-0.374541,-0.926167,-0.077364,-0.041961,0.770210, 0.472955
4.424108, -2.254736, -44.183295, 0.018555,-0.059082, 1.035156, -4.699707, -1.403809, 2.502441, 0.028363, 0.032730,-0.375033,-0.925999,-0.077215,-0.039353,0.771144, 0.473735
4.589252, -2.290924, -44.239603, 0.005371,-0.108887, 0.949707, -3.417969, 0.488281, 2.746582, 0.029562, 0.033578,-0.375426,-0.925772,-0.080098,-0.039984,0.772127, 0.474051
4.525424, -2.190251, -44.303452, 0.054199,-0.053711, 1.059082, 3.417969, 1.708984, 3.784180, 0.029360, 0.032572,-0.375999,-0.925582,-0.078984,-0.038227,0.773241, 0.472477
4.455675, -2.108549, -44.353688, 0.066406,-0.054688, 1.103516, 0.488281, 1.342773, 1.037598, 0.029052, 0.031696,-0.376455,-0.925437,-0.077766,-0.036801,0.774118, 0.472901
4.498797, -2.050644, -44.219297, 0.015137,-0.113281, 1.007812, -1.037598, 8.911133, -10.192871, 0.029627, 0.031336,-0.375379,-0.925868,-0.078519,-0.035790,0.771772, 0.470302
4.452486, -1.821721, -43.928450, 0.015625,-0.099609, 0.976562, 4.699707, 6.591797, -17.211914, 0.030080, 0.029259,-0.373125,-0.926831,-0.077711,-0.031795,0.766696, 0.467843
4.380488, -1.562250, -43.532675, -0.047363,-0.073242, 0.984375, 3.051758, 9.887695, -22.033691, 0.030438, 0.026822,-0.370033,-0.928132,-0.076454,-0.027266,0.759788, 0.461587
4.173343, -1.221739, -42.806687, 0.024414,-0.066406, 1.090332, 0.061035, 11.474609, -29.663086, 0.030010, 0.023206,-0.364307,-0.930506,-0.072839,-0.021323,0.747118, 0.455394
4.156330, -0.994987, -42.133456, -0.012207,-0.038574, 1.069336, -2.685547, 5.187988, -36.560059, 0.030719, 0.021131,-0.358911,-0.932627,-0.072542,-0.017366,0.735368, 0.448022
4.183871, -0.875373, -41.362140, -0.035645,-0.089844, 1.014648, -3.173828, 3.662109, -42.175293, 0.031454, 0.020033,-0.352659,-0.935008,-0.073022,-0.015278,0.721906, 0.441160
4.311436, -0.725279, -40.247986, 0.019043,-0.088867, 1.047852, 0.061035, 4.089355, -43.273926, 0.033142, 0.018880,-0.343579,-0.938349,-0.075249,-0.012659,0.702460, 0.431484
4.267701, -0.575199, -39.423135, -0.050781,-0.102051, 1.041504, -0.244141, 3.112793, -42.541504, 0.033360, 0.017280,-0.336871,-0.940801,-0.074485,-0.010039,0.688064, 0.426914
4.306464, -0.421977, -38.657426, 0.006348,-0.091309, 1.087891, -0.427246, 4.699707, -39.367676, 0.034236, 0.015908,-0.330621,-0.943008,-0.075162,-0.007365,0.674699, 0.419936
4.193987, -0.182523, -37.691613, -0.061035,-0.067383, 1.043457, 0.000000, 4.882812, -37.353516, 0.034115, 0.013326,-0.322751,-0.945775,-0.073199,-0.003186,0.657843, 0.411598
4.172578, 0.006028, -36.977749, -0.019531,-0.074219, 1.027344, 1.281738, 3.723145, -37.963867, 0.034542, 0.011495,-0.316912,-0.947756,-0.072825,0.000105,0.645383, 0.404649
4.212882, 0.153973, -36.261590, -0.040527,-0.066406, 1.010254, 0.061035, 2.319336, -38.146973, 0.035349, 0.010162,-0.311024,-0.949690,-0.073529,0.002687,0.632884, 0.397073
4.309984, 0.136400, -35.298520, -0.019043,-0.112793, 1.045898, 0.488281, 0.305176, -37.719727, 0.036193, 0.010267,-0.303017,-0.952242,-0.075223,0.002381,0.616075, 0.387110
4.346389, 0.110492, -34.584864, -0.020020,-0.106934, 1.038086, -0.366211, 0.793457, -37.963867, 0.036493, 0.010352,-0.297070,-0.954102,-0.075859,0.001928,0.603620, 0.379344
4.270074, 0.142471, -33.878729, -0.037109,-0.038086, 1.062500, -4.150391, 2.075195, -37.109375, 0.036000, 0.009666,-0.291201,-0.955935,-0.074527,0.002487,0.591295, 0.372144
4.449685, -0.019469, -33.159530, 0.016602,-0.088867, 1.040039, -3.295898, 2.319336, -38.330078, 0.037159, 0.011240,-0.285128,-0.957703,-0.077662,-0.000340,0.578743, 0.365158
4.490091, -0.156599, -32.141812, 0.025879,-0.069824, 0.993652, 2.380371, 4.577637, -40.039062, 0.037264, 0.012156,-0.276563,-0.960196,-0.078367,-0.002733,0.560980, 0.354306
4.551079, -0.047106, -31.361401, -0.026367,-0.091309, 0.927246, -0.793457, 5.126953, -41.259766, 0.038116, 0.011127,-0.270047,-0.962028,-0.079431,-0.000822,0.547360, 0.347442
4.572446, 0.107612, -30.592202, -0.071777,-0.052246, 1.087402, -0.732422, 0.061035, -40.283203, 0.038726, 0.009619,-0.263633,-0.963797,-0.079804,0.001878,0.533935, 0.339757
4.562425, 0.089212, -29.578076, -0.018066,-0.063477, 1.046387, 0.488281, -2.197266, -39.733887, 0.038684, 0.009408,-0.255088,-0.966098,-0.079629,0.001557,0.516235, 0.331029
4.550164, 0.068185, -28.826103, 0.011719,-0.107910, 1.038574, -2.380371, 1.892090, -39.611816, 0.038596, 0.009305,-0.248737,-0.967757,-0.079415,0.001190,0.503110, 0.323346
4.582618, 0.086428, -28.093420, 0.032715,-0.094727, 1.034668, -1.098633, -1.342773, -37.841797, 0.038968, 0.008973,-0.242548,-0.969315,-0.079982,0.001508,0.490323, 0.316246
4.634696, 0.007481, -27.133995, -0.006836,0.031738, 1.157227, 3.601074, 5.859375, -38.635254, 0.039321, 0.009422,-0.234393,-0.971301,-0.080891,0.000131,0.473578, 0.317125
4.566895, 0.028164, -26.412381, -0.011719,-0.268555, 0.814453, 6.408691, 5.554199, -37.902832, 0.038846, 0.008863,-0.228284,-0.972779,-0.079707,0.000492,0.460983, 0.306403
4.355704, 0.167636, -25.682966, -0.075195,0.000977, 0.990723, -3.051758, 4.943848, -38.269043, 0.037376, 0.007021,-0.222148,-0.974271,-0.076021,0.002926,0.448252, 0.292766
4.415604, 0.204621, -24.722191, 0.007324,0.002930, 1.079590, -3.601074, 0.549316, -37.658691, 0.038013, 0.006504,-0.213980,-0.976077,-0.077067,0.003571,0.431484, 0.284272
4.535420, 0.167280, -23.978014, 0.028809,-0.063965, 0.972168, 1.037598, 8.972168, -39.367676, 0.039009, 0.006793,-0.207618,-0.977408,-0.079158,0.002920,0.418495, 0.279260
4.818464, 0.217019, -23.220584, 0.023438,-0.375488, 1.161133, -7.995605, 2.075195, -39.245605, 0.041557, 0.006607,-0.201154,-0.978656,-0.084098,0.003788,0.405276, 0.286468
4.962844, 0.161001, -22.205802, 0.023438,-0.356445, 0.911621, 1.708984, 4.516602, -40.222168, 0.042755, 0.006960,-0.192451,-0.980350,-0.086618,0.002810,0.387564, 0.271866
4.894143, 0.177013, -21.423940, -0.095703,-0.143066, 0.941406, 0.732422, -1.098633, -41.687012, 0.042239, 0.006420,-0.185767,-0.981665,-0.085419,0.003089,0.373918, 0.260028
4.884606, 0.155439, -20.660188, 0.049805,-0.037109, 1.147949, 7.629395, 4.760742, -39.855957, 0.042166, 0.006308,-0.179213,-0.982886,-0.085252,0.002713,0.360588, 0.251172
4.937013, 0.181098, -19.630841, -0.010254,-0.102539, 1.128418, 6.286621, 6.225586, -40.405273, 0.042709, 0.005787,-0.170383,-0.984435,-0.086167,0.003161,0.342623, 0.242846
5.081280, 0.261760, -18.858393, -0.030273,-0.139160, 1.109863, -0.793457, 3.417969, -40.283203, 0.044103, 0.005011,-0.163767,-0.985500,-0.088685,0.004569,0.329141, 0.238542
4.989329, 0.209218, -18.084241, -0.041992,-0.222656, 0.854004, -2.502441, -0.488281, -41.259766, 0.043272, 0.005039,-0.157090,-0.986623,-0.087080,0.003652,0.315630, 0.224743
4.864036, 0.313380, -17.026886, -0.073730,-0.065430, 1.062500, 2.502441, 2.807617, -41.442871, 0.042371, 0.003580,-0.148022,-0.988070,-0.084893,0.005470,0.297175, 0.212005
4.789951, 0.358860, -16.240180, 0.003906,0.096680, 1.178223, 2.990723, 2.502441, -41.015625, 0.041811, 0.002805,-0.141254,-0.989086,-0.083600,0.006263,0.283445, 0.204501
4.775280, 0.417456, -15.455595, -0.049805,-0.058105, 0.992188, 1.281738, 6.591797, -41.442871, 0.041771, 0.001995,-0.134500,-0.990031,-0.083344,0.007286,0.269751, 0.196918
4.765450, 0.506629, -14.404575, -0.013184,-0.092773, 1.022949, 0.976562, 8.789062, -42.358398, 0.041800, 0.000830,-0.125446,-0.991219,-0.083173,0.008842,0.251407, 0.183705
4.750546, 0.639961, -13.592086, -0.024902,-0.145508, 0.971191, -1.464844, 4.333496, -42.053223, 0.041813, -0.000636,-0.118462,-0.992078,-0.082913,0.011169,0.237227, 0.172394
4.677870, 0.794822, -12.765879, -0.039062,-0.018555, 1.083008, 1.159668, 7.324219, -42.968750, 0.041327, -0.002350,-0.111359,-0.992918,-0.081644,0.013872,0.222807, 0.162095
4.621563, 0.822621, -11.691193, -0.057129,0.001953, 1.144043, 0.976562, 0.610352, -42.053223, 0.040840, -0.003029,-0.102050,-0.993936,-0.080662,0.014357,0.204050, 0.150159
4.746612, 0.767980, -10.902726, -0.094727,-0.217773, 0.932617, -2.807617, 0.000000, -41.503906, 0.041858, -0.002732,-0.095193,-0.994575,-0.082844,0.013404,0.190288, 0.141085
4.665131, 0.797587, -10.129444, -0.057617,0.012207, 1.032715, 4.943848, -2.197266, -40.649414, 0.041154, -0.003334,-0.088488,-0.995221,-0.081422,0.013921,0.176792, 0.131269
4.534616, 0.686809, -9.108217, 0.074707,0.030762, 1.116211, 5.310059, 3.295898, -40.527344, 0.039912, -0.002829,-0.079573,-0.996026,-0.079144,0.011987,0.158968, 0.119998
4.554728, 0.670296, -8.330777, 0.011230,-0.127441, 0.943359, 4.943848, 3.967285, -40.710449, 0.040056, -0.002943,-0.072809,-0.996537,-0.079495,0.011699,0.145399, 0.110270
4.431283, 0.618322, -7.556265, -0.001465,-0.102051, 0.956543, 0.244141, -1.953125, -41.015625, 0.038931, -0.002833,-0.066051,-0.997052,-0.077340,0.010792,0.131882, 0.099774
4.447668, 0.638294, -6.489577, -0.024902,-0.099121, 1.029297, -3.112793, -0.488281, -42.053223, 0.039056, -0.003361,-0.056774,-0.997617,-0.077626,0.011140,0.113264, 0.085360
4.742414, 0.599391, -5.652319, -0.049316,-0.347168, 1.112793, -2.258301, 2.380371, -44.616699, 0.041580, -0.003180,-0.049479,-0.997904,-0.082771,0.010461,0.098652, 0.076658
4.803338, 0.605265, -4.773743, -0.061035,-0.167480, 0.916016, 1.220703, -2.624512, -46.203613, 0.042088, -0.003528,-0.041831,-0.998232,-0.083834,0.010564,0.083318, 0.064773
4.668971, 0.695346, -3.558884, -0.125488,0.077637, 0.971191, 1.159668, 5.065918, -48.034668, 0.040901, -0.004795,-0.031273,-0.998662,-0.081489,0.012136,0.062114, 0.048922
4.738699, 0.741426, -2.667951, 0.046387,-0.146973, 1.109375, 8.911133, 11.474609, -46.325684, 0.041480, -0.005500,-0.023527,-0.998847,-0.082706,0.012940,0.046565, 0.037444
4.761425, 0.798513, -1.800930, -0.054199,-0.226562, 0.983398, 1.647949, -1.098633, -45.043945, 0.041643, -0.006309,-0.015991,-0.998985,-0.083103,0.013937,0.031432, 0.025134
4.780118, 0.903403, -0.657330, -0.095703,-0.253418, 0.945312, -5.859375, 1.281738, -45.043945, 0.041745, -0.007637,-0.006060,-0.999081,-0.083429,0.015767,0.011473, 0.009082
4.845043, 0.983295, 0.196801, -0.057617,-0.052246, 1.171387, -0.305176, 5.554199, -44.982910, 0.042252, -0.008646,0.001353,-0.999069,-0.084562,0.017162,-0.003435, -0.002789
4.874709, 0.901140, 1.017724, 0.025879,-0.316406, 0.861328, 9.338379, 4.150391, -44.372559, 0.042454, -0.008234,0.008538,-0.999028,-0.085080,0.015728,-0.017763, -0.014694
4.826115, 0.882196, 2.180814, -0.057617,-0.256348, 0.942383, 1.281738, 2.807617, -45.715332, 0.041948, -0.008492,0.018689,-0.998909,-0.084232,0.015397,-0.038062, -0.030984
4.856858, 0.896710, 3.070481, -0.097168,-0.140137, 0.951172, -6.225586, -3.173828, -47.485352, 0.042145, -0.008951,0.026435,-0.998722,-0.084768,0.015651,-0.053590, -0.043363
4.935546, 0.890955, 3.984888, -0.026855,-0.037598, 0.965820, 3.112793, 8.178711, -48.461914, 0.042760, -0.009260,0.034400,-0.998450,-0.086142,0.015550,-0.069549, -0.056923
5.082594, 0.997654, 4.925114, -0.052734,-0.192383, 0.906250, -2.502441, 11.108398, -49.377441, 0.043923, -0.010595,0.042537,-0.998073,-0.088708,0.017412,-0.085959, -0.070924
5.144040, 1.043835, 6.197515, -0.065430,-0.175781, 1.124023, -3.295898, -1.525879, -49.682617, 0.044316, -0.011512,0.053592,-0.997513,-0.089780,0.018218,-0.108167, -0.088831
5.096691, 1.056743, 7.109126, -0.074707,-0.143066, 1.038574, 1.953125, -2.929688, -47.668457, 0.043804, -0.011951,0.061526,-0.997072,-0.088954,0.018444,-0.124078, -0.101835
4.994767, 1.070656, 8.001505, -0.055176,-0.010742, 0.967285, 4.150391, 6.042480, -45.776367, 0.042814, -0.012351,0.069294,-0.996601,-0.087175,0.018686,-0.139653, -0.115675
4.951738, 1.087147, 9.138960, 0.008301,-0.017090, 1.046387, 3.967285, 2.258301, -44.555664, 0.042304, -0.012889,0.079181,-0.995879,-0.086424,0.018974,-0.159505, -0.131988
4.651922, 1.097443, 9.979444, -0.009277,0.042480, 0.944824, 9.887695, 4.333496, -44.128418, 0.039597, -0.013062,0.086514,-0.995378,-0.081191,0.019154,-0.174174, -0.130314
4.294436, 1.097204, 10.764476, 0.079102,0.166016, 1.018555, 9.277344, 4.150391, -39.428711, 0.036403, -0.013040,0.093372,-0.994880,-0.074952,0.019150,-0.187876, -0.111410
3.939360, 1.071044, 11.741987, 0.076172,0.227539, 1.086426, 6.713867, 0.488281, -38.024902, 0.033233, -0.012808,0.101904,-0.994156,-0.068755,0.018693,-0.204936, -0.109485
3.698142, 0.995628, 12.449006, 0.057129,0.264160, 1.049805, 6.896973, -1.892090, -37.536621, 0.031134, -0.012131,0.108085,-0.993580,-0.064545,0.017377,-0.217276, -0.091605
3.490370, 0.939454, 13.163454, -0.022949,0.235840, 1.025391, 0.732422, 1.098633, -37.658691, 0.029314, -0.011631,0.114315,-0.992944,-0.060918,0.016397,-0.229746, -0.096772
3.327308, 0.859419, 14.048184, -0.007324,0.164062, 1.006348, 0.366211, -0.366211, -33.325195, 0.027897, -0.010990,0.122016,-0.992075,-0.058072,0.015000,-0.245187, -0.083572
3.168837, 0.786160, 14.649852, -0.018066,0.153320, 1.054688, 1.831055, -1.403809, -30.456543, 0.026549, -0.010327,0.127256,-0.991461,-0.055307,0.013721,-0.255688, -0.085365
3.035461, 0.671918, 15.122973, -0.014648,0.131836, 1.053711, -0.488281, -5.554199, -22.888184, 0.025484, -0.009296,0.131388,-0.990960,-0.052979,0.011727,-0.263946, -0.069389
2.828558, 0.487621, 15.507552, 0.040527,0.078613, 1.044922, -0.549316, -6.469727, -11.352539, 0.023882, -0.007545,0.134770,-0.990560,-0.049368,0.008511,-0.270658, -0.070300
2.676126, 0.320203, 15.627480, 0.033203,0.088867, 1.032227, -2.258301, -7.568359, -3.662109, 0.022755, -0.005942,0.135851,-0.990450,-0.046707,0.005589,-0.272751, -0.054441
2.502122, 0.081870, 15.634238, 0.086426,0.102051, 1.068848, 2.929688, -7.995605, 0.610352, 0.021533, -0.003677,0.135964,-0.990473,-0.043670,0.001429,-0.272869, -0.053459
2.347472, -0.146863, 15.554569, 0.105957,0.062012, 1.029297, 1.464844, -5.249023, 4.638672, 0.020469, -0.001502,0.135320,-0.990589,-0.040971,-0.002563,-0.271478, -0.039755
2.153679, -0.376502, 15.431755, 0.128418,0.116211, 1.042969, -0.732422, -0.122070, 3.845215, 0.019064, 0.000732,0.134298,-0.990757,-0.037589,-0.006571,-0.269335, -0.035293
2.063208, -0.428996, 15.422325, 0.074707,0.077637, 1.080566, -2.380371, 1.647949, -1.586914, 0.018343, 0.001293,0.134223,-0.990781,-0.036010,-0.007487,-0.269170, -0.031056
1.893636, -0.417461, 15.483291, 0.031738,0.068848, 1.068848, 0.610352, 2.319336, -3.845215, 0.016864, 0.001383,0.134747,-0.990736,-0.033050,-0.007286,-0.270234, -0.022029
1.678703, -0.297709, 15.604247, -0.055664,0.069336, 1.020996, -0.488281, 3.417969, -4.760742, 0.014866, 0.000585,0.135775,-0.990628,-0.029299,-0.005196,-0.272346, -0.021820
1.552457, -0.270599, 15.648523, -0.005371,0.152344, 1.104492, -1.525879, -0.671387, -1.037598, 0.013743, 0.000495,0.136154,-0.990592,-0.027095,-0.004723,-0.273118, -0.028420
1.170701, -0.371459, 15.627046, 0.064453,0.343750, 1.004395, 7.446289, -4.333496, 1.037598, 0.010562, 0.001822,0.135974,-0.990654,-0.020433,-0.006483,-0.272743, -0.025870
0.897877, -0.475700, 15.603335, 0.067871,0.238281, 1.012695, 3.173828, -3.601074, 1.220703, 0.008326, 0.003049,0.135771,-0.990701,-0.015671,-0.008303,-0.272330, -0.021882
0.838416, -0.613356, 15.592219, 0.043457,0.042969, 1.081543, -6.408691, -4.699707, 0.366211, 0.007975, 0.004310,0.135682,-0.990711,-0.014633,-0.010705,-0.272136, -0.018734
0.908324, -0.749032, 15.585993, 0.046387,-0.029785, 1.060547, 0.488281, -3.906250, 0.305176, 0.008739, 0.005401,0.135639,-0.990705,-0.015853,-0.013073,-0.272027, -0.016033
0.855647, -1.064951, 15.563366, 0.026855,-0.014648, 1.018555, 1.525879, -5.249023, 1.892090, 0.008656, 0.008197,0.135458,-0.990711,-0.014934,-0.018587,-0.271632, -0.014009
0.956629, -1.341538, 15.493236, 0.035156,-0.042480, 1.041504, -2.075195, -8.850098, 4.516602, 0.009849, 0.010474,0.134875,-0.990758,-0.016696,-0.023414,-0.270408, -0.000000
1.176433, -1.562421, 15.351444, 0.059082,-0.079590, 1.053223, -2.990723, -8.666992, 7.995605, 0.011994, 0.012140,0.133686,-0.990877,-0.020533,-0.027269,-0.267933, -0.000000
1.399578, -1.874890, 15.125794, 0.086426,-0.090332, 1.057617, 0.183105, -5.981445, 8.605957, 0.014259, 0.014610,0.131785,-0.991068,-0.024427,-0.032723,-0.263995, -0.000000
1.584568, -2.018222, 14.974070, 0.070312,-0.125000, 1.033203, -2.014160, -4.638672, 7.019043, 0.016002, 0.015658,0.130511,-0.991194,-0.027656,-0.035225,-0.261347, -0.000000
1.780038, -2.134865, 14.878737, 0.073242,-0.137207, 1.040527, -2.380371, -1.708984, 3.173828, 0.017811, 0.016459,0.129726,-0.991253,-0.031068,-0.037260,-0.259683, -0.000000
2.052529, -2.187958, 14.912444, 0.064453,-0.198242, 1.051758, -1.464844, -1.525879, -4.211426, 0.020233, 0.016604,0.130063,-0.991160,-0.035823,-0.038187,-0.260271, -0.000000
2.236490, -2.210192, 15.029988, 0.034180,-0.233398, 1.039551, -0.305176, -0.183105, -7.019043, 0.021866, 0.016565,0.131110,-0.990988,-0.039034,-0.038575,-0.262323, -0.000000
2.368706, -2.236490, 15.114029, 0.056152,-0.135254, 1.083008, 2.136230, -0.976562, -3.601074, 0.023052, 0.016624,0.131859,-0.990861,-0.041342,-0.039034,-0.263790, -0.000000
2.089955, -2.239086, 15.138836, 0.315430,0.477539, 1.642090, 17.395020, 2.929688, 0.244141, 0.020648, 0.016963,0.132033,-0.990885,-0.036477,-0.039079,-0.264223, 0.038474
1.629403, -2.171836, 15.269965, 0.421875,0.327637, 1.526367, 23.986816, 14.953613, -4.760742, 0.016608, 0.016893,0.133091,-0.990821,-0.028438,-0.037906,-0.266511, 0.063171
0.920047, -1.968942, 15.561418, 0.032227,0.333008, 1.127441, 9.887695, 8.300781, -18.127441, 0.010280, 0.015936,0.135494,-0.990597,-0.016058,-0.034365,-0.271598, 0.086234
0.162542, -1.785597, 15.990151, 0.046387,0.655762, 0.937988, 34.057617, 13.977051, -25.329590, 0.003572, 0.015233,0.139093,-0.990156,-0.002837,-0.031165,-0.279081, 0.129388
-0.518063, -1.587575, 16.852763, -0.161133,0.485840, 0.696289, 23.132324, 7.019043, -39.489746, -0.002442, 0.014367,0.146461,-0.989109,0.009042,-0.027708,-0.294136, 0.177597
-0.870317, -1.447378, 17.709405, -0.185059,0.397461, 0.838867, 14.526367, -2.563477, -49.194336, -0.005560, 0.013649,0.153818,-0.987989,0.015190,-0.025262,-0.309087, 0.216974
-1.197256, -1.529097, 18.682898, -0.017090,0.598633, 0.752930, 12.268066, -8.544922, -55.419922, -0.008143, 0.014862,0.162157,-0.986620,0.020896,-0.026688,-0.326078, 0.283518
-1.401237, -1.603421, 20.198319, -0.165527,0.350098, 0.949707, 1.342773, -3.479004, -63.110352, -0.009584, 0.015918,0.175154,-0.984366,0.024456,-0.027985,-0.352527, 0.305593
-1.725160, -1.559818, 21.411284, 0.105957,0.454102, 1.044434, 15.136719, 2.868652, -66.833496, -0.012263, 0.016169,0.185524,-0.982430,0.030110,-0.027224,-0.373697, 0.355529
-2.014453, -1.457957, 22.700907, 0.010742,0.403809, 1.109375, 11.474609, 3.112793, -68.603516, -0.014730, 0.015931,0.196544,-0.980255,0.035159,-0.025446,-0.396206, 0.402383
-2.505140, -1.600660, 24.515243, 0.073242,0.441895, 0.930176, 4.882812, -5.920410, -75.744629, -0.018395, 0.018287,0.211938,-0.976939,0.043723,-0.027937,-0.427872, 0.453817
-2.716734, -1.568589, 25.984799, 0.187988,0.361328, 1.083984, 3.112793, 3.906250, -78.247070, -0.020020, 0.018663,0.224421,-0.974108,0.047416,-0.027377,-0.453520, 0.516159
-2.933497, -1.514776, 27.586948, 0.190430,0.277344, 1.099609, 1.342773, -2.380371, -83.862305, -0.021706, 0.018935,0.237995,-0.970839,0.051199,-0.026438,-0.481483, 0.545566
-3.110394, -1.877839, 29.773843, 0.198730,0.387207, 0.979980, -4.333496, -18.676758, -85.998535, -0.022017, 0.022802,0.256353,-0.966063,0.054287,-0.032774,-0.519652, 0.612099
-3.268065, -2.082926, 31.373490, 0.236328,0.344727, 1.166016, 6.408691, -0.183105, -83.129883, -0.022536, 0.025201,0.269724,-0.962344,0.057039,-0.036354,-0.547571, 0.666120
-3.536534, -2.168890, 32.913623, 0.192383,0.321289, 1.248047, -0.549316, -8.605957, -79.406738, -0.024229, 0.026882,0.282547,-0.958571,0.061724,-0.037854,-0.574451, 0.728552
-3.763867, -2.332777, 34.950310, 0.273926,0.391602, 1.038086, -4.516602, -2.563477, -81.359863, -0.025208, 0.029266,0.299430,-0.953336,0.065692,-0.040715,-0.609998, 0.768094
-3.988345, -2.275283, 36.576787, 0.129395,0.293945, 1.050293, 3.784180, 2.075195, -86.486816, -0.026807, 0.029757,0.312892,-0.948944,0.069610,-0.039711,-0.638385, 0.812729
-4.102035, -2.353701, 38.239668, 0.254395,0.221191, 1.071289, -13.488770, -14.343262, -85.632324, -0.027085, 0.031113,0.326572,-0.944272,0.071594,-0.041080,-0.667408, 0.886011
-4.091276, -2.756307, 40.348113, 0.418457,0.126953, 1.197266, -12.756348, -5.554199, -79.284668, -0.025207, 0.034868,0.343748,-0.938076,0.071406,-0.048107,-0.704207, 0.926776
-4.161912, -2.787188, 41.818103, 0.253906,0.110840, 1.109863, 2.807617, -2.441406, -75.317383, -0.025236, 0.035659,0.355720,-0.933571,0.072639,-0.048646,-0.729864, 0.978237
-4.026750, -3.019732, 43.276000, 0.369141,-0.120605, 1.035156, -16.174316, -18.798828, -77.453613, -0.022936, 0.037428,0.367525,-0.928977,0.070280,-0.052704,-0.755309, 0.968507
-3.335153, -3.441788, 45.189594, 0.384766,-0.563965, 1.076660, -35.827637, -6.530762, -70.373535, -0.015322, 0.038890,0.383069,-0.922774,0.058209,-0.060071,-0.788707, 0.828179
-2.560798, -3.419854, 46.493692, 0.208984,-0.452637, 1.192871, -41.503906, 2.197266, -68.420410, -0.008748, 0.036226,0.393806,-0.918438,0.044694,-0.059688,-0.811468, 0.799857
-1.931766, -3.319927, 47.743927, 0.248047,-0.481445, 1.133789, -26.000977, 5.615234, -65.856934, -0.003687, 0.033305,0.404020,-0.914136,0.033716,-0.057944,-0.833289, 0.816232
-1.286129, -3.258733, 49.367344, 0.294434,-0.500000, 1.125977, -18.493652, 5.798340, -63.110352, 0.001680, 0.030519,0.417123,-0.908336,0.022447,-0.056876,-0.861623, 0.789858
-0.938876, -3.159890, 50.527581, 0.215820,-0.515625, 1.025879, -11.718750, 6.896973, -59.753418, 0.004360, 0.028429,0.426406,-0.904075,0.016386,-0.055150,-0.881873, 0.757356
-0.724113, -3.029427, 51.609275, 0.191406,-0.402832, 1.013184, -8.728027, 7.019043, -55.480957, 0.005820, 0.026547,0.434993,-0.900024,0.012638,-0.052873,-0.900752, 0.671615
-0.527647, -2.983427, 52.593467, 0.260254,-0.393066, 0.927734, -7.995605, 3.601074, -51.025391, 0.007406, 0.025377,0.442758,-0.896251,0.009209,-0.052071,-0.917929, 0.680656
-0.201535, -3.043919, 53.815945, 0.314941,-0.372559, 1.024902, -7.202148, 0.000000, -43.945312, 0.010452, 0.024480,0.452357,-0.891440,0.003517,-0.053126,-0.939265, 0.631965
-0.008276, -3.084791, 54.574578, 0.298340,-0.412598, 1.097656, -3.417969, 1.770020, -37.963867, 0.012276, 0.023954,0.458285,-0.888398,0.000144,-0.053840,-0.952506, 0.529761
0.112546, -3.143183, 55.222373, 0.290527,-0.393555, 1.066406, -1.342773, 0.244141, -32.104492, 0.013581, 0.023848,0.463318,-0.885767,-0.001964,-0.054859,-0.963812, 0.506991
0.296519, -3.220446, 55.884403, 0.238281,-0.423828, 0.971680, -0.915527, 0.061035, -23.498535, 0.015452, 0.023612,0.468458,-0.883035,-0.005175,-0.056207,-0.975367, 0.486516
0.457950, -3.294991, 56.224789, 0.220215,-0.369141, 1.020020, -4.638672, -0.244141, -15.502930, 0.017071, 0.023476,0.471105,-0.881599,-0.007993,-0.057508,-0.981308, 0.414062
0.617294, -3.345379, 56.422635, 0.190918,-0.330566, 1.063477, -1.220703, 0.061035, -7.873535, 0.018543, 0.023177,0.472655,-0.880747,-0.010774,-0.058388,-0.984761, 0.376175
0.783261, -3.444124, 56.485234, 0.195312,-0.282227, 1.085449, 1.525879, -0.366211, 0.061035, 0.020239, 0.023240,0.473162,-0.880436,-0.013670,-0.060111,-0.985853, 0.365176
0.763960, -3.528888, 56.440449, 0.136230,-0.092773, 1.062988, 5.004883, 2.075195, 2.380371, 0.020431, 0.023979,0.472808,-0.880602,-0.013334,-0.061591,-0.985072, 0.418793
0.743335, -3.491350, 56.364668, 0.081543,-0.090332, 0.985352, 6.958008, 9.765625, 3.723145, 0.020102, 0.023789,0.472224,-0.880928,-0.012974,-0.060936,-0.983749, 0.403675
0.887576, -3.312624, 56.223348, 0.087891,-0.092773, 1.012695, 4.028320, 8.544922, 6.164551, 0.020448, 0.021845,0.471178,-0.881530,-0.015491,-0.057816,-0.981282, 0.403011
1.043616, -3.200657, 56.135265, -0.044434,-0.337402, 0.979004, -0.671387, 5.615234, 3.112793, 0.021173, 0.020359,0.470535,-0.881893,-0.018215,-0.055862,-0.979745, 0.369692
1.179973, -2.898373, 56.214858, -0.009277,-0.069824, 0.929199, -5.859375, 6.591797, -4.821777, 0.020994, 0.017457,0.471180,-0.881614,-0.020594,-0.050586,-0.981134, 0.353375
1.355485, -2.872302, 56.238558, 0.095215,-0.202637, 0.983887, 0.183105, -1.098633, -0.122070, 0.022241, 0.016530,0.471389,-0.881490,-0.023658,-0.050131,-0.981548, 0.336032
1.559934, -2.918536, 56.255139, 0.141602,-0.287109, 1.047852, 6.469727, -2.807617, -2.014160, 0.024006, 0.016041,0.471545,-0.881369,-0.027226,-0.050938,-0.981837, 0.325630
1.783136, -2.925877, 56.301557, 0.036621,-0.108887, 0.958008, -6.835938, 0.915527, -1.403809, 0.025759, 0.015169,0.471933,-0.881128,-0.031122,-0.051066,-0.982648, 0.311261
1.905863, -2.947239, 56.245136, 0.142090,-0.203613, 1.077637, 0.000000, 0.549316, 2.624512, 0.026783, 0.014841,0.471515,-0.881326,-0.033264,-0.051439,-0.981663, 0.294196
2.161630, -2.976518, 56.247759, 0.069824,-0.166016, 0.992188, 4.028320, 1.159668, -1.220703, 0.028870, 0.014013,0.471569,-0.881245,-0.037728,-0.051950,-0.981709, 0.280638
2.333448, -2.975732, 56.248735, 0.089355,-0.152344, 1.053223, 1.647949, 1.525879, -0.122070, 0.030189, 0.013300,0.471597,-0.881197,-0.040726,-0.051936,-0.981726, 0.261066
2.532234, -2.972356, 56.259838, 0.028809,-0.194824, 1.019531, -4.577637, 0.305176, -1.098633, 0.031705, 0.012452,0.471704,-0.881099,-0.044196,-0.051877,-0.981919, 0.251214
2.758982, -2.970429, 56.251061, 0.054688,-0.132324, 1.017578, -1.403809, 1.892090, 0.427246, 0.033439, 0.011507,0.471660,-0.881071,-0.048153,-0.051844,-0.981766, 0.230837
2.925578, -2.984635, 56.240420, 0.082520,-0.204590, 0.986328, 0.122070, 0.488281, -0.183105, 0.034777, 0.010934,0.471596,-0.881061,-0.051061,-0.052092,-0.981580, 0.215111
3.096868, -3.022974, 56.237947, 0.099121,-0.130859, 1.060059, 2.319336, 0.061035, 0.183105, 0.036252, 0.010524,0.471597,-0.881006,-0.054051,-0.052761,-0.981537, 0.186425
3.289901, -3.019280, 56.230041, 0.061523,-0.184570, 1.025391, 0.244141, 0.244141, 0.122070, 0.037720, 0.009704,0.471552,-0.880978,-0.057420,-0.052696,-0.981399, 0.186407
3.454734, -3.037364, 56.232736, 0.054688,-0.253906, 0.985352, -2.197266, 0.427246, 0.000000, 0.039061, 0.009164,0.471589,-0.880905,-0.060296,-0.053012,-0.981446, 0.166260
3.613424, -3.035996, 56.207546, 0.051270,-0.105957, 1.094727, 2.990723, 3.112793, 0.610352, 0.040274, 0.008509,0.471407,-0.880955,-0.063066,-0.052988,-0.981007, 0.136960
3.758290, -3.103513, 56.199995, 0.037598,-0.270020, 0.930664, 2.014160, 1.220703, 0.061035, 0.041664, 0.008436,0.471369,-0.880911,-0.065595,-0.054167,-0.980875, 0.136754
3.967691, -3.113383, 56.175516, 0.047363,-0.299316, 1.058105, -2.868652, 0.732422, 0.793457, 0.043312, 0.007659,0.471197,-0.880931,-0.069249,-0.054339,-0.980448, 0.113284
4.168873, -3.137251, 56.147143, 0.075195,-0.269043, 1.037598, 0.610352, -0.122070, 0.610352, 0.044955, 0.007027,0.470996,-0.880961,-0.072761,-0.054755,-0.979952, 0.090210
4.230908, -3.201617, 56.159612, 0.064941,-0.112305, 0.964355, 4.089355, 1.464844, -1.342773, 0.045696, 0.007262,0.471106,-0.880862,-0.073843,-0.055879,-0.980170, 0.081704
4.182493, -3.221184, 56.165735, 0.062012,-0.058105, 1.064453, -1.647949, -0.610352, 1.098633, 0.045404, 0.007610,0.471154,-0.880849,-0.072998,-0.056220,-0.980277, 0.077450
4.273827, -3.313560, 56.139934, 0.081543,-0.099121, 1.035156, 0.427246, -0.854492, 1.220703, 0.046483, 0.007955,0.470977,-0.880884,-0.074592,-0.057833,-0.979827, 0.064458
4.195295, -3.364593, 56.144517, 0.078613,-0.066895, 1.032227, 0.854492, 1.464844, -0.305176, 0.046089, 0.008669,0.471015,-0.880878,-0.073222,-0.058723,-0.979907, 0.051491
4.104341, -3.327323, 56.156641, 0.048828,-0.061523, 1.023926, 0.732422, -0.610352, -0.122070, 0.045238, 0.008751,0.471095,-0.880878,-0.071634,-0.058073,-0.980118, -0.000000
3.948726, -3.392270, 56.156890, 0.069336,-0.061523, 1.031738, 0.671387, 0.061035, 0.671387, 0.044307, 0.009891,0.471094,-0.880914,-0.068918,-0.059206,-0.980123, -0.000000
3.837310, -3.593792, 56.156217, 0.087402,-0.056152, 1.037598, -0.366211, 0.061035, 0.061035, 0.044276, 0.011900,0.471106,-0.880884,-0.066974,-0.062724,-0.980111, -0.000000
3.677496, -3.641584, 56.166360, 0.068359,-0.056641, 1.040039, 0.305176, 0.610352, 0.122070, 0.043244, 0.012921,0.471172,-0.880886,-0.064184,-0.063558,-0.980288, -0.000000
3.496252, -3.621693, 56.174874, 0.066406,-0.050781, 1.036133, 0.366211, 0.061035, 0.183105, 0.041771, 0.013510,0.471215,-0.880925,-0.061021,-0.063210,-0.980437, -0.000000
3.326923, -3.664133, 56.180850, 0.067383,-0.051270, 1.030762, 0.366211, 0.122070, 0.122070, 0.040644, 0.014531,0.471244,-0.880946,-0.058066,-0.063951,-0.980541, -0.000000
3.164562, -3.825247, 56.189651, 0.074219,-0.049316, 1.033691, 0.488281, 0.610352, -0.122070, 0.040057, 0.016435,0.471303,-0.880908,-0.055232,-0.066763,-0.980694, -0.000000
3.006507, -3.886924, 56.199415, 0.071289,-0.050293, 1.029785, 0.244141, 0.488281, 0.122070, 0.039096, 0.017556,0.471359,-0.880899,-0.052473,-0.067840,-0.980865, -0.000000
2.861458, -3.946378, 56.204496, 0.075195,-0.050293, 1.038574, 0.366211, 0.305176, 0.305176, 0.038226, 0.018609,0.471379,-0.880906,-0.049942,-0.068877,-0.980954, -0.000000
2.888400, -3.961589, 56.196802, 0.075684,-0.055664, 1.037598, 0.000000, 0.244141, 0.183105, 0.038494, 0.018618,0.471325,-0.880923,-0.050412,-0.069143,-0.980819, -0.000000
2.860105, -3.961505, 56.196143, 0.070312,-0.054688, 1.039551, 0.305176, 0.488281, 0.000000, 0.038276, 0.018734,0.471315,-0.880935,-0.049918,-0.069141,-0.980808, -0.000000
2.999335, -4.041519, 56.184535, 0.074219,-0.055664, 1.031738, 0.427246, 0.427246, 0.183105, 0.039672, 0.018781,0.471253,-0.880905,-0.052348,-0.070538,-0.980605, -0.000000
3.101505, -4.011055, 56.171787, 0.075195,-0.059570, 1.033691, 0.488281, 0.488281, 0.183105, 0.040331, 0.018131,0.471170,-0.880934,-0.054131,-0.070006,-0.980383, -0.000000
3.151281, -4.032777, 56.164154, 0.074219,-0.058594, 1.039551, -0.061035, 0.122070, 0.244141, 0.040801, 0.018096,0.471120,-0.880939,-0.055000,-0.070385,-0.980249, -0.000000
3.251878, -3.909692, 56.155264, 0.069824,-0.059570, 1.041016, -0.061035, 0.122070, 0.000000, 0.041069, 0.016738,0.471058,-0.880987,-0.056756,-0.068237,-0.980094, -0.000000
3.452264, -3.886993, 56.136983, 0.074707,-0.076660, 1.031738, 0.122070, 0.244141, 0.122070, 0.042514, 0.015746,0.470944,-0.880997,-0.060253,-0.067841,-0.979775, -0.000000
3.614035, -3.825684, 56.125840, 0.055664,-0.111816, 1.017090, -0.183105, -0.122070, -0.061035, 0.043505, 0.014614,0.470874,-0.881006,-0.063077,-0.066771,-0.979581, -0.000000
3.930092, -3.832774, 56.072909, 0.066895,-0.654297, 0.815430, -13.244629, -5.371094, 3.662109, 0.045958, 0.013391,0.470506,-0.881097,-0.068593,-0.066895,-0.978657, -0.138291
4.160084, -3.858877, 56.080921, -0.026367,0.072266, 0.971191, -1.403809, -1.770020, -2.807617, 0.047834, 0.012644,0.470597,-0.880960,-0.072607,-0.067350,-0.978797, -0.175250
4.499369, -3.707055, 56.072913, 0.279785,-0.224121, 1.644531, -15.319824, 29.357910, -2.990723, 0.049821, 0.010086,0.470546,-0.880910,-0.078529,-0.064700,-0.978657, -0.268653
4.968447, -3.777910, 56.036655, 0.162598,-0.968750, 0.933105, -27.282715, -9.399414, 5.126953, 0.053713, 0.008722,0.470319,-0.880817,-0.086716,-0.065937,-0.978024, -0.323831
5.396067, -3.662953, 56.052309, 0.119629,-0.843750, 1.014648, -16.357422, -2.929688, 2.075195, 0.056531, 0.006074,0.470442,-0.880597,-0.094179,-0.063931,-0.978297, -0.382288
5.532643, -3.552507, 56.055267, 0.019531,-0.608887, 0.863281, -5.798340, -0.061035, 0.244141, 0.057130, 0.004662,0.470445,-0.880566,-0.096563,-0.062003,-0.978349, -0.450369
5.732512, -3.656708, 56.051152, 0.069336,-0.523926, 0.756836, 6.469727, -11.596680, -0.793457, 0.059091, 0.004645,0.470447,-0.880435,-0.100051,-0.063822,-0.978277, -0.512998
5.966675, -3.543236, 56.065673, 0.070312,-0.580078, 1.024414, -4.150391, 9.277344, -0.366211, 0.060427, 0.002803,0.470536,-0.880305,-0.104138,-0.061841,-0.978531, -0.564723
6.141878, -3.411789, 56.095124, -0.068359,-0.528809, 1.036133, 0.671387, 1.098633, -1.831055, 0.061237, 0.001056,0.470729,-0.880150,-0.107196,-0.059547,-0.979045, -0.605352
6.178531, -3.413750, 56.099749, 0.026367,-0.424805, 1.071777, 11.413574, -1.342773, -0.427246, 0.061527, 0.000918,0.470765,-0.880110,-0.107836,-0.059581,-0.979125, -0.638082
6.179530, -3.372357, 56.086467, 0.080566,-0.449219, 0.913086, 5.371094, 5.798340, 1.037598, 0.061365, 0.000603,0.470651,-0.880183,-0.107853,-0.058859,-0.978894, -0.671449
6.426877, -3.315851, 56.074747, 0.097656,-0.434570, 1.112793, -6.652832, 1.464844, 0.244141, 0.063034, -0.000841,0.470543,-0.880122,-0.112170,-0.057873,-0.978689, -0.703077
6.544469, -3.329052, 56.097962, 0.060547,-0.390137, 1.021973, 4.089355, -2.319336, -2.441406, 0.063991, -0.001235,0.470725,-0.879956,-0.114223,-0.058103,-0.979094, -0.738480
6.558162, -3.272545, 56.255354, 0.006836,-0.305664, 1.000488, 4.760742, 1.220703, -9.277344, 0.063863, -0.001814,0.471915,-0.879326,-0.114462,-0.057117,-0.981841, -0.775893
6.468092, -3.192235, 56.444144, 0.020020,-0.055664, 0.901367, 3.234863, 2.563477, -10.498047, 0.062840, -0.002164,0.473338,-0.878634,-0.112890,-0.055715,-0.985136, -0.782064
6.696840, -3.101422, 56.679860, 0.241699,-0.228027, 1.162598, -6.958008, 16.418457, -13.671875, 0.064213, -0.003938,0.475109,-0.877572,-0.116882,-0.054130,-0.989250, -0.827044
6.735222, -2.863848, 57.091174, 0.046875,0.001953, 1.371582, -1.098633, 10.925293, -15.319824, 0.063506, -0.006148,0.478173,-0.875945,-0.117552,-0.049984,-0.996429, -0.867912
6.809306, -2.822157, 57.361609, 0.069824,-0.074219, 1.297363, -9.033203, 3.723145, -14.160156, 0.063883, -0.006927,0.480220,-0.874791,-0.118845,-0.049256,-1.001149, -0.904316
6.829130, -2.855461, 57.594587, -0.025391,-0.436035, 0.964355, -1.831055, -8.056641, -11.962891, 0.064159, -0.006886,0.482008,-0.873787,-0.119191,-0.049837,-1.005215, -0.932444
6.787548, -2.959030, 57.883722, 0.087402,-0.495605, 1.020508, -2.502441, -5.065918, -11.230469, 0.064260, -0.006082,0.484250,-0.872546,-0.118465,-0.051645,-1.010262, -0.954570
6.541705, -2.941027, 58.137942, 0.022949,-0.354004, 0.714844, 4.760742, -3.417969, -12.756348, 0.062301, -0.005319,0.486191,-0.871613,-0.114174,-0.051331,-1.014699, -0.956229
6.536172, -2.900237, 58.406457, 0.020020,0.044922, 1.080078, 5.615234, -3.295898, -13.244629, 0.062073, -0.005752,0.488219,-0.870492,-0.114078,-0.050619,-1.019385, -0.975881
6.773067, -2.896636, 58.739374, -0.105957,-0.108887, 1.022461, 0.976562, 8.911133, -13.488770, 0.063837, -0.006974,0.490731,-0.868942,-0.118212,-0.050556,-1.025196, -1.009041
6.752228, -2.697530, 59.017513, -0.035156,-0.096680, 1.226562, 5.065918, 11.779785, -14.709473, 0.062811, -0.008549,0.492772,-0.867847,-0.117849,-0.047081,-1.030050, -1.042779
6.685940, -2.635006, 59.274936, 0.046875,-0.266113, 0.916016, -0.671387, 3.723145, -13.488770, 0.062021, -0.008878,0.494704,-0.866800,-0.116692,-0.045990,-1.034543, -1.061612
6.491316, -2.529546, 59.663492, 0.015625,-0.072266, 1.001465, -0.305176, 0.793457, -15.808105, 0.060065, -0.009041,0.497620,-0.865266,-0.113295,-0.044149,-1.041324, -1.033476
6.441709, -2.516825, 59.971445, 0.067383,-0.246582, 0.972168, 6.591797, -5.249023, -16.479492, 0.059612, -0.009081,0.499943,-0.863957,-0.112429,-0.043927,-1.046699, -1.088981
6.313672, -2.591769, 60.267062, -0.014648,-0.097168, 0.876465, -1.098633, -7.873535, -14.831543, 0.058951, -0.008109,0.502204,-0.862699,-0.110194,-0.045235,-1.051859, -1.095453
6.309287, -2.666137, 60.456900, 0.027344,-0.012207, 1.019531, -5.676270, 8.239746, -7.873535, 0.059230, -0.007627,0.503656,-0.861838,-0.110118,-0.046533,-1.055172, -1.097520
6.243899, -2.499132, 60.517498, 0.035645,0.007324, 1.353027, 1.403809, 5.493164, 2.014160, 0.058003, -0.008629,0.504064,-0.861673,-0.108977,-0.043618,-1.056230, -1.116845
6.038832, -2.518459, 60.438254, -0.014160,0.059082, 1.032715, 7.324219, -4.089355, 5.310059, 0.056551, -0.007542,0.503489,-0.862116,-0.105398,-0.043955,-1.054846, -0.861511
5.582829, -2.605100, 60.313282, 0.164062,0.332520, 1.269531, 21.606445, -4.089355, 6.469727, 0.053504, -0.004827,0.502597,-0.862850,-0.097439,-0.045468,-1.052665, -0.860444
4.681109, -2.657024, 60.177218, 0.030762,0.336426, 0.912598, 32.897949, -0.976562, 5.432129, 0.046940, -0.000425,0.501605,-0.863822,-0.081701,-0.046374,-1.050291, -0.789102
4.096859, -2.659928, 60.092674, 0.082031,0.402832, 0.912598, 17.150879, 2.685547, 4.455566, 0.042547, 0.002186,0.500964,-0.864419,-0.071504,-0.046424,-1.048815, -0.678716
3.569610, -2.631295, 60.021045, 0.099121,0.421387, 1.099121, 22.399902, 3.112793, 4.150391, 0.038441, 0.004299,0.500404,-0.864928,-0.062301,-0.045925,-1.047565, -0.643095
3.011809, -2.557131, 59.967661, 0.069336,0.400879, 0.995117, 14.770508, 3.051758, 2.624512, 0.033905, 0.006190,0.499967,-0.865359,-0.052566,-0.044630,-1.046633, -0.548304
2.756189, -2.581628, 59.935033, 0.088867,0.322754, 1.058594, 2.929688, -2.258301, 1.770020, 0.032079, 0.007500,0.499707,-0.865568,-0.048105,-0.045058,-1.046064, -0.541062
2.474548, -2.545091, 59.919884, 0.083984,0.373535, 1.077637, 4.638672, 4.150391, 1.098633, 0.029791, 0.008456,0.499570,-0.865720,-0.043189,-0.044420,-1.045799, -0.459288
2.192458, -2.463229, 59.907063, 0.033203,0.251465, 1.020996, 2.563477, 1.953125, 0.610352, 0.027302, 0.009070,0.499447,-0.865867,-0.038266,-0.042991,-1.045575, -0.455598
2.001233, -2.437944, 59.890165, 0.078125,0.244629, 0.997559, 4.089355, 1.098633, 1.464844, 0.025746, 0.009716,0.499303,-0.865991,-0.034928,-0.042550,-1.045281, -0.383734
1.803425, -2.412160, 59.858350, 0.057617,0.235840, 1.013672, 1.403809, 0.000000, 2.563477, 0.024136, 0.010389,0.499044,-0.866178,-0.031476,-0.042100,-1.044725, -0.357002
1.583854, -2.381813, 59.796824, 0.031250,0.222656, 1.083008, -0.122070, 0.488281, 3.051758, 0.022338, 0.011128,0.498557,-0.866497,-0.027643,-0.041570,-1.043651, -0.313667
1.417988, -2.410636, 59.743098, 0.093750,0.186523, 1.016113, -0.427246, -0.549316, 3.112793, 0.021204, 0.012078,0.498135,-0.866756,-0.024749,-0.042074,-1.042714, -0.272824
1.282759, -2.444786, 59.693763, 0.082031,0.175293, 1.013184, -0.671387, -0.549316, 2.685547, 0.020323, 0.012933,0.497747,-0.866988,-0.022388,-0.042670,-1.041853, -0.244110
1.088936, -2.502155, 59.659927, 0.072754,0.139648, 1.038574, 0.061035, 0.732422, 1.098633, 0.019102, 0.014214,0.497467,-0.867156,-0.019006,-0.043671,-1.041262, -0.208015
0.944573, -2.541883, 59.656040, 0.070312,0.136230, 1.006348, -0.610352, -0.061035, 0.366211, 0.018181, 0.015142,0.497418,-0.867189,-0.016486,-0.044364,-1.041194, -0.177631
0.804344, -2.568071, 59.657638, 0.075684,0.124023, 1.086426, -2.929688, -0.427246, 0.061035, 0.017234, 0.015949,0.497410,-0.867198,-0.014038,-0.044821,-1.041222, -0.155103
0.589235, -2.601274, 59.660555, 0.080566,0.082520, 1.028320, -0.122070, 0.488281, 0.488281, 0.015750, 0.017134,0.497399,-0.867210,-0.010284,-0.045401,-1.041273, -0.109842
0.436825, -2.617407, 59.663089, 0.063477,0.075684, 1.061035, -0.488281, 0.366211, 0.122070, 0.014667, 0.017917,0.497394,-0.867216,-0.007624,-0.045682,-1.041317, -0.074840
0.285035, -2.638496, 59.667665, 0.062500,0.039551, 1.006348, -0.854492, 0.427246, 0.183105, 0.013611, 0.018735,0.497403,-0.867211,-0.004975,-0.046050,-1.041397, -0.066594
0.113241, -2.653156, 59.673129, 0.069336,0.065430, 1.055664, 0.000000, 0.061035, 0.122070, 0.012375, 0.019591,0.497414,-0.867204,-0.001976,-0.046306,-1.041493, -0.066598
-0.111833, -2.642935, 59.693429, 0.056152,0.072754, 1.054688, -0.366211, 0.549316, -0.183105, 0.010631, 0.020489,0.497529,-0.867140,0.001952,-0.046128,-1.041847, -0.056751
-0.276789, -2.674795, 59.707738, 0.050781,0.173828, 1.063477, 0.732422, 1.037598, -0.549316, 0.009524, 0.021445,0.497604,-0.867087,0.004831,-0.046684,-1.042097, -0.000000
-0.340388, -2.732520, 59.722723, 0.059570,0.120605, 1.076172, 0.427246, 0.000000, -0.793457, 0.009296, 0.022156,0.497698,-0.867018,0.005941,-0.047691,-1.042358, -0.000000
-0.447392, -2.730625, 59.743665, 0.085938,0.165527, 1.121094, 1.831055, 1.281738, -0.427246, 0.008483, 0.022605,0.497836,-0.866935,0.007808,-0.047658,-1.042724, -0.000000
-0.494465, -2.680181, 59.747756, 0.038086,0.091309, 1.052734, -0.854492, 1.281738, 0.366211, 0.007908, 0.022428,0.497864,-0.866929,0.008630,-0.046778,-1.042795, -0.000000
-0.513470, -2.678855, 59.735789, 0.077637,0.125000, 1.116699, -0.732422, 0.122070, 0.915527, 0.007756, 0.022501,0.497770,-0.866982,0.008962,-0.046755,-1.042586, -0.000000
-0.754074, -2.742657, 59.739027, 0.079102,0.115723, 0.977051, 2.563477, 1.037598, -0.183105, 0.006214, 0.024029,0.497736,-0.866973,0.013161,-0.047868,-1.042643, -0.000000
-0.809230, -2.742244, 59.747244, 0.045898,-0.005371, 0.956543, -2.441406, -0.305176, -0.183105, 0.005796, 0.024265,0.497787,-0.866940,0.014124,-0.047861,-1.042786, -0.000000
-0.808138, -2.735824, 59.744122, 0.073730,0.010254, 1.093750, -1.342773, -0.488281, 0.549316, 0.005776, 0.024212,0.497765,-0.866955,0.014105,-0.047749,-1.042732, -0.000000
-0.760218, -2.813447, 59.738644, 0.062500,0.011230, 0.996094, 1.098633, 1.220703, -0.183105, 0.006475, 0.024591,0.497721,-0.866964,0.013268,-0.049104,-1.042636, -0.000000
-0.688807, -2.850589, 59.741527, 0.036133,-0.011230, 1.021973, -1.586914, -0.061035, -0.366211, 0.007177, 0.024562,0.497753,-0.866942,0.012022,-0.049752,-1.042686, -0.000000
-0.494464, -2.830757, 59.731268, 0.047363,-0.025391, 1.043945, -2.014160, -0.244141, 0.183105, 0.008559, 0.023568,0.497719,-0.866976,0.008630,-0.049406,-1.042507, -0.000000
-0.228703, -2.844475, 59.707376, 0.059082,-0.032715, 1.041016, -2.197266, -0.488281, 0.488281, 0.010625, 0.022520,0.497590,-0.867055,0.003992,-0.049645,-1.042090, -0.000000
-0.025909, -2.880863, 59.690833, 0.059570,-0.043945, 1.027832, -1.342773, 0.061035, 0.427246, 0.012314, 0.021916,0.497499,-0.867100,0.000452,-0.050281,-1.041802, -0.000000
0.172506, -2.923799, 59.675513, 0.069824,-0.050293, 1.039551, -1.525879, 0.122070, 0.366211, 0.013999, 0.021381,0.497417,-0.867135,-0.003011,-0.051030,-1.041534, -0.000000
0.440203, -2.994647, 59.667488, 0.061523,-0.052734, 1.034180, -1.892090, -0.488281, -0.183105, 0.016331, 0.020757,0.497398,-0.867120,-0.007683,-0.052266,-1.041394, -0.000000
0.632001, -3.012974, 59.663499, 0.057129,-0.054199, 1.040527, -1.342773, 0.000000, -0.305176, 0.017861, 0.020063,0.497401,-0.867105,-0.011030,-0.052586,-1.041325, -0.000000
0.816987, -3.058413, 59.658800, 0.063965,-0.049805, 1.036133, -0.915527, -0.305176, -0.183105, 0.019457, 0.019605,0.497394,-0.867085,-0.014259,-0.053379,-1.041242, -0.000000
1.061699, -3.067151, 59.649271, 0.055664,-0.051758, 1.041016, -0.061035, 0.488281, 0.061035, 0.021345, 0.018611,0.497363,-0.867080,-0.018530,-0.053532,-1.041076, -0.000000
1.244698, -3.053360, 59.635946, 0.053223,-0.056641, 1.035645, -0.305176, 0.427246, 0.305176, 0.022668, 0.017715,0.497291,-0.867106,-0.021724,-0.053291,-1.040844, -0.000000
1.421620, -3.064819, 59.621575, 0.063965,-0.059082, 1.037109, -0.366211, 0.122070, 0.244141, 0.024054, 0.017037,0.497209,-0.867130,-0.024812,-0.053491,-1.040593, -0.000000
1.652421, -3.112345, 59.607532, 0.062988,-0.062012, 1.041504, -0.488281, 0.061035, -0.061035, 0.026004, 0.016398,0.497136,-0.867128,-0.028840,-0.054321,-1.040348, -0.000000
1.823922, -3.122808, 59.598769, 0.057129,-0.060547, 1.038086, 0.000000, 0.183105, -0.061035, 0.027346, 0.015735,0.497094,-0.867123,-0.031833,-0.054503,-1.040195, -0.000000
1.994619, -3.113584, 59.586215, 0.055664,-0.058105, 1.039062, 0.366211, 0.549316, 0.305176, 0.028596, 0.014928,0.497021,-0.867139,-0.034813,-0.054342,-1.039976, -0.000000
2.164654, -3.126336, 59.572145, 0.062500,-0.059570, 1.039062, 0.244141, 0.244141, 0.305176, 0.029936, 0.014291,0.496937,-0.867153,-0.037780,-0.054565,-1.039730, -0.000000
2.383101, -3.186727, 59.554059, 0.063477,-0.062988, 1.034668, 0.305176, 0.427246, 0.122070, 0.031848, 0.013806,0.496828,-0.867154,-0.041593,-0.055619,-1.039414, -0.000000
2.545947, -3.205411, 59.543540, 0.057129,-0.060547, 1.040527, -0.061035, 0.183105, 0.122070, 0.033160, 0.013244,0.496769,-0.867148,-0.044435,-0.055945,-1.039231, -0.000000
2.709659, -3.222703, 59.532202, 0.058105,-0.056641, 1.039062, 0.183105, 0.427246, 0.122070, 0.034473, 0.012669,0.496703,-0.867144,-0.047292,-0.056247,-1.039033, -0.000000
2.919047, -3.254410, 59.514840, 0.062500,-0.056152, 1.034668, 0.244141, 0.366211, 0.244141, 0.036192, 0.012007,0.496596,-0.867144,-0.050947,-0.056800,-1.038730, -0.000000
3.028315, -3.362726, 59.505960, 0.065430,-0.056152, 1.041504, 0.549316, 0.427246, 0.122070, 0.037486, 0.012357,0.496548,-0.867112,-0.052854,-0.058691,-1.038575, -0.000000
2.982902, -3.323620, 59.505571, 0.063477,-0.057129, 1.046387, -0.122070, 0.183105, 0.061035, 0.036974, 0.012257,0.496537,-0.867141,-0.052061,-0.058008,-1.038568, -0.000000
2.970019, -3.307173, 59.501575, 0.062988,-0.053711, 1.034180, 0.122070, 0.244141, 0.183105, 0.036805, 0.012190,0.496504,-0.867168,-0.051837,-0.057721,-1.038498, -0.000000
2.906805, -3.312516, 59.502074, 0.060547,-0.052246, 1.037598, 0.305176, 0.183105, 0.122070, 0.036350, 0.012504,0.496502,-0.867184,-0.050733,-0.057814,-1.038507, -0.000000
2.777570, -3.283574, 59.508071, 0.057617,-0.048340, 1.042480, 0.183105, 0.427246, 0.061035, 0.035247, 0.012843,0.496531,-0.867208,-0.048478,-0.057309,-1.038612, -0.000000
2.641566, -3.243596, 59.513043, 0.058105,-0.047363, 1.028809, 0.366211, 0.488281, 0.122070, 0.034046, 0.013128,0.496551,-0.867240,-0.046104,-0.056611,-1.038699, -0.000000
2.583638, -3.259189, 59.514737, 0.059570,-0.046387, 1.038574, 0.305176, 0.366211, 0.122070, 0.033675, 0.013497,0.496558,-0.867245,-0.045093,-0.056884,-1.038728, -0.000000
2.489153, -3.325768, 59.516561, 0.061523,-0.045410, 1.045898, 0.183105, 0.122070, 0.061035, 0.033248, 0.014410,0.496563,-0.867244,-0.043444,-0.058046,-1.038760, -0.000000
2.399102, -3.286531, 59.517346, 0.056641,-0.045410, 1.042480, 0.000000, 0.427246, 0.244141, 0.032397, 0.014503,0.496556,-0.867279,-0.041872,-0.057361,-1.038774, -0.000000
2.397937, -3.354470, 59.515072, 0.070312,-0.041504, 1.035645, 0.671387, 1.892090, -0.061035, 0.032681, 0.015023,0.496541,-0.867268,-0.041852,-0.058547,-1.038734, -0.000000
2.432419, -3.392652, 59.542775, 0.066895,-0.044922, 1.025879, 1.037598, 2.624512, -2.319336, 0.033111, 0.015155,0.496756,-0.867126,-0.042454,-0.059213,-1.039217, -0.000000
2.359406, -3.213601, 59.667692, 0.026855,-0.050781, 1.026855, -1.281738, 1.342773, -5.859375, 0.031799, 0.014081,0.497686,-0.866660,-0.041179,-0.056088,-1.041398, -0.000000
2.381431, -3.047658, 59.749914, 0.025879,-0.048828, 1.059570, -2.258301, -0.183105, -3.295898, 0.031256, 0.012707,0.498304,-0.866345,-0.041564,-0.053192,-1.042833, -0.000000
2.469305, -3.145688, 59.737613, 0.097168,-0.044434, 1.046387, -0.488281, -1.098633, 1.220703, 0.032344, 0.013070,0.498225,-0.866346,-0.043098,-0.054903,-1.042618, -0.000000
2.479226, -3.353597, 59.700600, 0.077637,-0.045410, 1.025391, 1.220703, 0.732422, 1.220703, 0.033317, 0.014610,0.497955,-0.866439,-0.043271,-0.058531,-1.041972, -0.000000
2.423482, -3.412406, 59.693859, 0.059570,-0.042480, 1.027344, 0.427246, 0.305176, 0.000000, 0.033149, 0.015299,0.497899,-0.866466,-0.042298,-0.059558,-1.041854, -0.000000
2.460991, -3.312163, 59.696632, 0.061523,-0.051758, 1.041992, -0.366211, 0.244141, -0.549316, 0.032998, 0.014377,0.497921,-0.866475,-0.042952,-0.057808,-1.041903, -0.139064
2.763823, -3.224036, 59.681353, 0.078613,-0.205566, 1.050781, -5.065918, 0.793457, 1.159668, 0.034905, 0.012399,0.497837,-0.866479,-0.048238,-0.056270,-1.041636, -0.139043
3.002586, -3.172376, 59.679338, 0.020508,-0.119141, 1.102051, -3.845215, 0.854492, -0.488281, 0.036486, 0.010971,0.497842,-0.866430,-0.052405,-0.055368,-1.041601, -0.140247
2.939005, -3.278189, 59.709473, 0.074707,-0.071777, 0.924805, 4.394531, 0.671387, -2.136230, 0.036467, 0.012039,0.498072,-0.866285,-0.051295,-0.057215,-1.042127, -0.134252
3.119183, -3.189966, 59.784728, 0.093262,-0.304688, 1.025391, -10.131836, 3.601074, -3.662109, 0.037453, 0.010563,0.498651,-0.865929,-0.054440,-0.055675,-1.043440, -0.218150
3.701481, -3.179549, 59.892522, 0.050293,-0.573242, 0.900879, -27.832031, -0.915527, -7.263184, 0.041815, 0.007911,0.499511,-0.865261,-0.064603,-0.055494,-1.045322, -0.248435
4.406969, -3.154718, 60.097605, 0.050781,-0.520996, 1.170898, -28.503418, 0.976562, -12.695312, 0.047042, 0.004564,0.501094,-0.864101,-0.076916,-0.055060,-1.048901, -0.275420
4.921934, -3.125086, 60.392594, 0.013672,-0.551270, 0.942383, -10.620117, 2.136230, -16.845703, 0.050801, 0.001958,0.503325,-0.862600,-0.085904,-0.054543,-1.054050, -0.313927
5.345956, -3.026288, 60.825492, 0.140625,-0.544434, 0.669922, -14.770508, 4.882812, -16.845703, 0.053557, -0.000852,0.506561,-0.860539,-0.093305,-0.052819,-1.061605, -0.341318
5.769244, -2.790234, 61.222114, 0.127930,-0.455078, 1.304199, -8.178711, 16.723633, -21.240234, 0.055681, -0.004691,0.509466,-0.858675,-0.100692,-0.048699,-1.068528, -0.431300
5.989033, -2.637003, 61.713198, 0.095703,-0.204102, 1.235840, 1.281738, 19.531250, -26.977539, 0.056620, -0.007060,0.513087,-0.856438,-0.104528,-0.046024,-1.077098, -0.433314
5.880582, -2.339004, 62.514802, -0.166016,-0.091797, 1.082031, 2.990723, 13.488770, -34.301758, 0.054417, -0.009186,0.518988,-0.852998,-0.102636,-0.040823,-1.091089, -0.484303
5.976286, -2.283381, 63.162905, -0.018555,-0.309570, 1.115723, -3.662109, 3.906250, -35.522461, 0.054821, -0.010344,0.523779,-0.850025,-0.104306,-0.039853,-1.102401, -0.487122
6.086858, -2.294620, 63.819963, 0.036133,-0.344238, 0.984863, -2.319336, 0.915527, -35.705566, 0.055629, -0.011085,0.528637,-0.846951,-0.106236,-0.040049,-1.113868, -0.530707
6.257364, -2.260746, 64.810921, -0.023926,-0.233887, 1.050781, -0.244141, 3.173828, -39.550781, 0.056627, -0.012613,0.535913,-0.842277,-0.109212,-0.039457,-1.131164, -0.535140
6.290291, -2.225657, 65.558977, -0.058594,-0.297852, 0.976074, 2.075195, 1.892090, -39.733887, 0.056619, -0.013395,0.541386,-0.838759,-0.109786,-0.038845,-1.144220, -0.557480
6.236101, -2.169850, 66.300086, -0.052734,-0.163086, 0.968750, 4.943848, 3.601074, -39.428711, 0.055871, -0.013910,0.546788,-0.835289,-0.108840,-0.037871,-1.157155, -0.599770
6.213967, -2.070157, 67.082553, 0.035645,-0.092773, 1.006348, 4.577637, 8.300781, -41.564941, 0.055135, -0.014908,0.552451,-0.831586,-0.108454,-0.036131,-1.170811, -0.623706
6.223618, -1.915939, 68.177903, -0.033203,-0.112305, 1.121094, 1.586914, 1.770020, -41.992188, 0.054307, -0.016595,0.560326,-0.826323,-0.108623,-0.033439,-1.189929, -0.628633
6.241449, -1.883527, 68.954530, 0.017578,-0.085449, 1.094727, -2.746582, 0.671387, -39.916992, 0.054162, -0.017284,0.565901,-0.822511,-0.108934,-0.032874,-1.203484, -0.652219
6.499371, -1.867010, 69.944921, -0.005859,-0.197266, 1.098633, -6.958008, 7.690430, -38.757324, 0.055768, -0.019159,0.572942,-0.817472,-0.113435,-0.032585,-1.220769, -0.687991
6.460840, -1.814016, 70.657549, -0.004883,-0.296387, 0.928223, 3.112793, 1.159668, -37.475586, 0.055108, -0.019688,0.578004,-0.813933,-0.112763,-0.031661,-1.233207, -0.704478
6.256853, -1.689040, 71.386829, -0.079102,-0.129883, 1.036621, 5.371094, 1.586914, -37.719727, 0.052904, -0.019885,0.583168,-0.810383,-0.109203,-0.029479,-1.245935, -0.717730
6.139100, -1.642958, 72.114934, -0.033691,-0.001465, 1.121582, 3.295898, 2.807617, -38.330078, 0.051712, -0.019941,0.588312,-0.806732,-0.107148,-0.028675,-1.258643, -0.740265
6.071490, -1.555093, 73.122612, -0.040527,-0.008301, 1.056641, 2.502441, 1.220703, -40.771484, 0.050606, -0.020659,0.595369,-0.801591,-0.105967,-0.027141,-1.276230, -0.766435
6.184622, -1.439577, 73.917987, -0.010742,-0.137695, 0.960449, -3.723145, 4.089355, -42.053223, 0.050644, -0.022408,0.600862,-0.797432,-0.107942,-0.025125,-1.290112, -0.782580
6.169966, -1.298156, 74.702038, -0.005371,-0.116699, 1.055664, -2.380371, 1.464844, -41.076660, 0.049641, -0.023656,0.606263,-0.793361,-0.107686,-0.022657,-1.303797, -0.801108
6.240787, -1.344232, 75.746176, 0.084473,-0.164062, 1.095215, -3.967285, -3.601074, -41.137695, 0.050157, -0.024170,0.613466,-0.787756,-0.108922,-0.023461,-1.322020, -0.804968
6.318633, -1.393022, 76.541040, 0.091309,-0.113770, 0.991699, 0.366211, 1.281738, -42.358398, 0.050783, -0.024604,0.618914,-0.783429,-0.110281,-0.024313,-1.335893, -0.817928
6.415483, -1.332110, 77.369692, -0.033203,-0.114258, 0.983398, -2.502441, 7.873535, -43.701172, 0.050931, -0.025913,0.624523,-0.778914,-0.111971,-0.023250,-1.350356, -0.832729
6.368829, -1.205224, 78.498688, -0.086914,-0.068848, 1.139160, 0.061035, 0.976562, -43.884277, 0.049659, -0.027012,0.632137,-0.772792,-0.111157,-0.021035,-1.370061, -0.846295
6.147012, -1.349328, 79.315107, 0.065430,-0.060059, 1.055176, 4.455566, -2.197266, -44.311523, 0.048779, -0.025164,0.637721,-0.768309,-0.107286,-0.023550,-1.384310, -0.852098
6.036991, -1.393674, 80.180704, 0.031738,0.015625, 1.084473, 4.699707, 5.737305, -46.325684, 0.048103, -0.024618,0.643544,-0.763499,-0.105365,-0.024324,-1.399417, -0.863158
6.014399, -1.206736, 81.076196, -0.107910,-0.121582, 1.094238, -1.708984, 6.286621, -46.630859, 0.046702, -0.026104,0.649442,-0.758526,-0.104971,-0.021062,-1.415047, -0.867920
5.968029, -0.977028, 82.252082, -0.091797,-0.134766, 0.928223, -1.647949, 8.850098, -44.555664, 0.044812, -0.027824,0.657136,-0.751924,-0.104162,-0.017052,-1.435570, -0.870534
5.818525, -0.830939, 83.071957, -0.097656,-0.142578, 1.044922, 3.417969, 2.929688, -42.236328, 0.042793, -0.028233,0.662494,-0.747311,-0.101552,-0.014503,-1.449879, -0.873297
5.745300, -0.879576, 83.853099, -0.027832,0.015137, 1.004883, 2.624512, -0.427246, -40.954590, 0.042408, -0.027782,0.667604,-0.742788,-0.100274,-0.015352,-1.463513, -0.870723
5.643691, -0.940988, 84.878938, -0.038574,-0.174316, 1.084961, -3.112793, 4.333496, -40.039062, 0.041865, -0.027167,0.674268,-0.736798,-0.098501,-0.016423,-1.481417, -0.872262
5.491542, -1.029430, 85.609202, 0.054199,-0.075195, 1.017578, 0.976562, -0.610352, -38.208008, 0.041242, -0.025966,0.679008,-0.732511,-0.095845,-0.017967,-1.494162, -0.865518
5.379851, -0.933028, 86.308729, 0.000488,0.006836, 1.074707, 8.117676, 3.662109, -35.339355, 0.039798, -0.026165,0.683469,-0.728424,-0.093896,-0.016284,-1.506372, -0.873476
5.089328, -0.812641, 87.168602, -0.054688,-0.002441, 1.130371, 8.300781, 6.347656, -31.494141, 0.037044, -0.025476,0.688952,-0.723411,-0.088826,-0.014183,-1.521379, -0.877482
4.838616, -0.721152, 87.753096, -0.095703,-0.036133, 0.940430, 6.347656, 0.671387, -31.127930, 0.034785, -0.024725,0.692667,-0.719994,-0.084450,-0.012586,-1.531580, -0.875084
4.610233, -0.723869, 88.315377, -0.034180,0.009766, 0.929688, 3.601074, -2.319336, -29.724121, 0.033252, -0.023491,0.696240,-0.716653,-0.080464,-0.012634,-1.541394, -0.841128
4.355307, -0.690456, 89.054540, -0.070312,0.028320, 1.002441, 2.319336, 2.258301, -28.808594, 0.031311, -0.022353,0.700893,-0.712229,-0.076014,-0.012051,-1.554295, -0.791034
4.087788, -0.785784, 89.538610, 0.010742,0.081055, 1.031738, 5.493164, -6.591797, -23.254395, 0.030146, -0.020252,0.703963,-0.709308,-0.071345,-0.013715,-1.562743, -0.684826
3.782727, -1.013835, 89.901122, 0.062500,0.251953, 1.109375, 10.864258, -13.366699, -18.188477, 0.029604, -0.017059,0.706290,-0.707097,-0.066021,-0.017695,-1.569071, -0.684847
3.190319, -1.376679, 90.193392, 0.120605,0.264160, 1.042480, 16.540527, -8.911133, -8.850098, 0.028155, -0.011238,0.708210,-0.705351,-0.055682,-0.024028,-1.574172, -0.575055
2.799609, -1.495664, 90.251634, 0.087891,0.268066, 0.966309, 8.728027, -2.929688, -0.366211, 0.026481, -0.008104,0.708611,-0.705056,-0.048862,-0.026104,-1.575188, -0.453142
2.503139, -1.563660, 90.211226, 0.106445,0.248047, 1.032227, 6.286621, 0.427246, 2.990723, 0.025079, -0.005843,0.708384,-0.705357,-0.043688,-0.027291,-1.574483, -0.453144
2.165394, -1.507233, 90.130739, 0.077148,0.223633, 1.068359, 5.920410, 4.211426, 3.112793, 0.022654, -0.004087,0.707901,-0.705937,-0.037793,-0.026306,-1.573078, -0.385547
1.969315, -1.471139, 90.102250, 0.023438,0.216309, 1.085938, 4.150391, 2.929688, 1.586914, 0.021224, -0.003093,0.707731,-0.706157,-0.034371,-0.025676,-1.572581, -0.358974
1.763549, -1.442248, 90.073010, 0.061523,0.194824, 1.084473, 2.929688, 0.183105, 2.319336, 0.019778, -0.001995,0.707554,-0.706379,-0.030780,-0.025172,-1.572071, -0.296969
1.517507, -1.465660, 90.023239, 0.036133,0.156738, 1.077637, 0.244141, -1.708984, 2.380371, 0.018406, -0.000324,0.707250,-0.706724,-0.026485,-0.025581,-1.571202, -0.273427
1.348349, -1.504874, 89.986991, 0.042480,0.138184, 1.074219, -0.427246, -2.441406, 1.892090, 0.017604, 0.000968,0.707026,-0.706968,-0.023533,-0.026265,-1.570569, -0.222378
1.213132, -1.550653, 89.954322, 0.031250,0.110352, 1.033203, -0.854492, 0.549316, 1.647949, 0.017052, 0.002090,0.706822,-0.707183,-0.021173,-0.027064,-1.569999, -0.194172
1.059718, -1.653684, 89.932985, 0.088379,0.074707, 1.022949, 0.854492, -1.159668, 1.098633, 0.016740, 0.003675,0.706684,-0.707322,-0.018496,-0.028862,-1.569627, -0.171095
0.802907, -1.696532, 89.916490, 0.047852,0.094727, 1.075195, 1.464844, -1.586914, 0.915527, 0.015418, 0.005525,0.706570,-0.707454,-0.014013,-0.029610,-1.569339, -0.125874
0.642049, -1.798043, 89.896778, 0.069336,0.050781, 1.029297, -0.488281, -1.892090, 1.403809, 0.015049, 0.007147,0.706434,-0.707583,-0.011206,-0.031382,-1.568995, -0.116550
0.485827, -1.840879, 89.872988, 0.049316,0.024414, 1.049805, 0.732422, 0.305176, 1.525879, 0.014347, 0.008377,0.706273,-0.707744,-0.008479,-0.032129,-1.568580, -0.086480
0.250024, -1.921061, 89.843318, 0.042969,0.047363, 0.987305, 0.427246, -0.854492, 1.281738, 0.013382, 0.010329,0.706064,-0.707946,-0.004364,-0.033529,-1.568062, -0.066900
0.128413, -2.016040, 89.831317, 0.046875,0.009277, 1.047852, -0.549316, -0.183105, 0.671387, 0.013215, 0.011667,0.705969,-0.708023,-0.002241,-0.035187,-1.567852, -0.061072
0.046558, -2.105260, 89.821653, 0.067871,-0.014160, 1.041504, -1.281738, -0.427246, 0.732422, 0.013258, 0.012724,0.705891,-0.708082,-0.000813,-0.036744,-1.567684, -0.000000
0.018360, -2.189641, 89.797125, 0.061523,0.162598, 1.062988, -1.098633, 1.220703, 0.976562, 0.013600, 0.013422,0.705727,-0.708226,-0.000320,-0.038216,-1.567255, -0.000000
-0.008764, -2.234142, 89.784681, 0.068359,0.213867, 1.157227, -0.610352, 0.183105, 0.488281, 0.013705, 0.013865,0.705642,-0.708301,0.000153,-0.038993,-1.567038, -0.000000
-0.126183, -2.311341, 89.786764, 0.049805,-0.078125, 0.929688, -0.488281, 0.915527, -0.244141, 0.013455, 0.015065,0.705630,-0.708293,0.002202,-0.040341,-1.567075, -0.000000
-0.159360, -2.335520, 89.787058, 0.075195,0.096191, 1.157715, -0.915527, 0.366211, 0.488281, 0.013399, 0.015419,0.705624,-0.708292,0.002781,-0.040763,-1.567080, -0.000000
-0.215100, -2.418507, 89.784223, 0.077148,0.041016, 1.023438, 1.770020, 0.061035, 0.427246, 0.013565, 0.016275,0.705588,-0.708306,0.003754,-0.042211,-1.567030, -0.000000
-0.438131, -2.431287, 89.789093, 0.121582,0.354492, 1.091797, 4.577637, 2.197266, -0.183105, 0.012266, 0.017727,0.705583,-0.708300,0.007647,-0.042434,-1.567115, -0.000000
-0.333970, -2.370800, 89.803389, 0.013672,0.063477, 1.208008, -6.042480, 4.699707, -1.342773, 0.012539, 0.016710,0.705696,-0.708207,0.005829,-0.041378,-1.567365, 0.068065
-0.081759, -2.406655, 89.803143, 0.021973,-0.037598, 1.121094, -5.004883, 1.037598, -0.671387, 0.014319, 0.015379,0.705725,-0.708175,0.001427,-0.042004,-1.567361, 0.070396
0.079941, -2.416990, 89.800035, 0.040039,-0.037598, 0.986816, -0.427246, 1.098633, -0.183105, 0.015381, 0.014447,0.705725,-0.708172,-0.001395,-0.042184,-1.567306, 0.072494
0.316562, -2.457666, 89.794489, 0.058105,-0.093262, 1.076660, -1.831055, -0.427246, -0.305176, 0.017093, 0.013242,0.705714,-0.708166,-0.005525,-0.042894,-1.567210, 0.076923
0.080100, -2.484621, 89.778629, 0.103027,0.375000, 1.804199, 17.333984, 0.610352, 2.746582, 0.015796, 0.014867,0.705584,-0.708294,-0.001398,-0.043365,-1.566933, 0.216549
-0.625796, -2.483973, 89.777584, -0.130859,0.391113, 0.637207, 26.611328, 0.366211, -0.183105, 0.011428, 0.019209,0.705473,-0.708384,0.010922,-0.043354,-1.566914, 0.353377
-1.006995, -2.290251, 89.712602, 0.373047,0.000977, 1.073730, -7.812500, 10.070801, 4.211426, 0.007867, 0.020363,0.705039,-0.708833,0.017575,-0.039972,-1.565780, 0.353376
-1.209321, -2.238657, 89.691811, 0.090820,0.281738, 0.543457, 3.051758, -6.896973, 2.258301, 0.006294, 0.021290,0.704883,-0.708977,0.021107,-0.039072,-1.565417, 0.399295
-1.520703, -2.123423, 89.673752, 0.153809,0.461426, 1.278320, 27.709961, 15.808105, 0.488281, 0.003655, 0.022493,0.704733,-0.709106,0.026541,-0.037061,-1.565102, 0.451974
-1.810034, -2.071419, 89.664954, 0.078125,0.333496, 0.960938, 2.197266, 3.356934, 2.014160, 0.001543, 0.023951,0.704631,-0.709168,0.031591,-0.036153,-1.564949, 0.478080
-1.964511, -2.019470, 89.658759, 0.089355,0.598633, 1.449219, -6.347656, 4.150391, -1.708984, 0.000266, 0.024580,0.704571,-0.709208,0.034287,-0.035246,-1.564841, 0.498826
-2.163124, -2.111886, 89.679407, 0.317383,0.394043, 1.376465, 2.258301, 10.803223, -2.197266, -0.000390, 0.026373,0.704634,-0.709081,0.037754,-0.036859,-1.565201, 0.519805
-2.281202, -2.088664, 89.731077, -0.075684,0.015137, 0.823730, 1.403809, -10.131836, -0.183105, -0.001251, 0.026956,0.704931,-0.708762,0.039814,-0.036454,-1.566103, 0.546614
-2.314348, -2.099354, 89.784899, 0.177734,-0.074219, 1.039551, -10.314941, -1.647949, -0.122070, -0.001378, 0.027226,0.705254,-0.708431,0.040393,-0.036641,-1.567042, 0.578784
-2.215422, -2.080277, 89.799133, 0.067871,-0.333496, 0.834473, -9.582520, -2.136230, -0.061035, -0.000880, 0.026500,0.705369,-0.708344,0.038666,-0.036308,-1.567290, 0.602094
-2.005786, -2.087102, 89.831966, 0.001953,0.414062, 1.488281, -0.671387, -3.112793, -1.770020, 0.000465, 0.025251,0.705618,-0.708142,0.035008,-0.036427,-1.567864, 0.626105
-1.898774, -2.238801, 89.839206, 0.292480,-0.012207, 1.211426, -1.281738, 8.300781, -1.037598, 0.002062, 0.025529,0.705653,-0.708094,0.033140,-0.039074,-1.567990, 0.626105
-1.950340, -2.231116, 89.867394, -0.042480,-0.338867, 0.653809, -2.380371, -7.751465, -0.610352, 0.001703, 0.025799,0.705817,-0.707922,0.034040,-0.038940,-1.568482, 0.710954
-1.849784, -2.148306, 89.902276, 0.114746,0.603516, 1.305664, -2.685547, 8.361816, -0.976562, 0.001821, 0.024667,0.706073,-0.707707,0.032285,-0.037495,-1.569091, 0.755011
-1.499842, -2.119700, 89.939282, -0.133301,-0.045410, 1.132324, -14.282227, 11.108398, -4.028320, 0.003813, 0.022333,0.706379,-0.707471,0.026177,-0.036996,-1.569737, 0.703729
-0.985912, -2.142724, 89.964165, 0.153320,-0.321289, 1.248535, -28.015137, -3.051758, -2.258301, 0.007132, 0.019306,0.706622,-0.707292,0.017207,-0.037398,-1.570171, 0.846620
-1.039257, -2.249296, 90.012399, 0.147461,0.400879, 1.334961, 9.216309, -6.164551, -1.770020, 0.007469, 0.020289,0.706892,-0.706991,0.018138,-0.039258,-1.571013, 0.846620
-1.179200, -2.292846, 90.098193, -0.153320,0.007812, 0.903320, -0.183105, 1.159668, -5.432129, 0.006890, 0.021416,0.707388,-0.706468,0.020581,-0.040018,-1.572510, 0.871327
-1.168849, -2.358980, 90.123376, 0.042969,0.361816, 1.059082, -0.061035, -8.361816, -0.488281, 0.007367, 0.021758,0.707533,-0.706307,0.020400,-0.041172,-1.572950, 0.871327
-0.978654, -2.476022, 90.135404, 0.291992,-0.166992, 0.971680, -11.047363, 0.793457, -1.220703, 0.009265, 0.021304,0.707620,-0.706211,0.017081,-0.043215,-1.573160, 0.817014
-0.873117, -2.511937, 90.154283, 0.110840,0.009766, 1.005371, -3.295898, 2.929688, 0.915527, 0.010140, 0.020871,0.707750,-0.706082,0.015239,-0.043842,-1.573489, 0.884146
-0.753753, -2.343193, 90.153409, -0.022461,0.020508, 1.055176, -4.760742, 6.835938, -1.342773, 0.009833, 0.019095,0.707794,-0.706092,0.013155,-0.040896,-1.573474, 0.887643
-0.689944, -2.437031, 90.138580, 0.121094,-0.008789, 1.074707, 0.732422, 1.098633, 1.159668, 0.010804, 0.019280,0.707698,-0.706169,0.012042,-0.042534,-1.573215, 0.887643
-0.464235, -2.304106, 90.120234, 0.025391,-0.126465, 1.061523, -4.455566, 6.652832, 0.976562, 0.011371, 0.017069,0.707642,-0.706274,0.008102,-0.040214,-1.572895, 0.866665
-0.246231, -2.360716, 90.115023, 0.068848,-0.085449, 1.134766, 0.549316, -4.882812, -0.427246, 0.013063, 0.016072,0.707633,-0.706277,0.004298,-0.041202,-1.572804, 0.867364
-0.126960, -2.398551, 90.140267, 0.048828,-0.088379, 0.918945, 2.319336, -1.586914, -1.953125, 0.014035, 0.015566,0.707800,-0.706102,0.002216,-0.041863,-1.573244, 0.840790
0.093823, -2.469105, 90.193003, 0.055176,-0.053223, 0.935547, -1.281738, 2.136230, -2.929688, 0.015838, 0.014629,0.708145,-0.705738,-0.001638,-0.043094,-1.574165, 0.824005
0.338780, -2.443603, 90.238574, 0.047363,-0.110352, 1.063965, -2.624512, 3.723145, -3.051758, 0.017194, 0.012952,0.708458,-0.705425,-0.005913,-0.042649,-1.574960, 0.824002
0.554444, -2.553887, 90.319211, 0.059082,-0.072266, 1.164062, -2.807617, -7.446289, -5.432129, 0.019212, 0.012284,0.708965,-0.704874,-0.009677,-0.044574,-1.576368, 0.818169
0.696695, -2.651572, 90.396044, 0.081543,-0.135254, 1.071289, 2.136230, -0.854492, -3.723145, 0.020700, 0.011991,0.709442,-0.704357,-0.012160,-0.046279,-1.577709, 0.793454
0.873242, -2.648269, 90.436547, 0.085449,-0.100098, 0.981934, -1.770020, 0.000000, -0.671387, 0.021768, 0.010870,0.709709,-0.704074,-0.015241,-0.046221,-1.578416, 0.806270
1.081222, -2.729082, 90.445706, 0.075684,-0.104980, 1.078613, -4.394531, -2.990723, -1.220703, 0.023547, 0.010077,0.709777,-0.703961,-0.018871,-0.047631,-1.578575, 0.806269
1.278505, -2.704703, 90.456648, 0.080566,-0.164062, 1.036621, -1.281738, 5.737305, -1.037598, 0.024609, 0.008702,0.709863,-0.703857,-0.022314,-0.047206,-1.578766, 0.798343
1.479339, -2.618759, 90.486414, 0.024902,-0.120117, 1.068359, 0.549316, -0.793457, -1.892090, 0.025312, 0.006923,0.710065,-0.703647,-0.025819,-0.045706,-1.579286, 0.802302
1.650259, -2.641859, 90.512601, 0.024902,-0.162598, 1.049805, 2.380371, -2.502441, -1.708984, 0.026506, 0.006000,0.710234,-0.703441,-0.028802,-0.046109,-1.579743, 0.792975
1.757095, -2.665132, 90.534608, 0.019043,-0.148926, 0.976074, 4.577637, 1.953125, -1.708984, 0.027307, 0.005476,0.710373,-0.703274,-0.030667,-0.046515,-1.580127, 0.782950
1.876042, -2.731269, 90.574367, 0.029785,-0.125488, 0.985840, 3.173828, -4.455566, -2.441406, 0.028449, 0.005135,0.710620,-0.702982,-0.032743,-0.047670,-1.580821, 0.775952
2.053424, -2.792861, 90.605895, 0.029297,-0.076660, 1.076660, -5.310059, -4.333496, -2.258301, 0.029920, 0.004405,0.710818,-0.702726,-0.035839,-0.048745,-1.581371, 0.769421
2.264556, -2.879827, 90.620580, 0.054688,-0.112305, 1.050781, 0.549316, -0.976562, -1.220703, 0.031754, 0.003625,0.710912,-0.702555,-0.039524,-0.050262,-1.581628, 0.759396
2.484260, -3.000678, 90.644752, 0.082520,-0.126465, 1.100098, 0.732422, -0.976562, -1.342773, 0.033850, 0.002996,0.711062,-0.702307,-0.043359,-0.052372,-1.582049, 0.751001
2.605805, -3.002126, 90.654512, 0.062988,-0.133789, 0.998535, 3.173828, 5.859375, -0.244141, 0.034604, 0.002248,0.711125,-0.702210,-0.045480,-0.052397,-1.582220, 0.748436
2.706841, -2.950340, 90.637710, 0.102051,-0.141602, 1.037109, -0.610352, 4.394531, 0.732422, 0.034902, 0.001308,0.711025,-0.702299,-0.047243,-0.051493,-1.581926, 0.731656
2.921960, -2.905111, 90.617697, 0.045898,-0.129883, 1.028809, -1.586914, 4.821777, 0.366211, 0.035940, -0.000298,0.710903,-0.702371,-0.050998,-0.050704,-1.581577, 0.710215
3.117462, -2.785680, 90.599755, 0.052734,-0.130371, 0.999023, 2.807617, 9.094238, 1.281738, 0.036399, -0.002238,0.710790,-0.702458,-0.054410,-0.048619,-1.581264, 0.710217
3.271106, -2.734203, 90.597214, 0.020508,-0.122559, 1.048828, 0.183105, -4.943848, -0.976562, 0.037022, -0.003506,0.710770,-0.702441,-0.057092,-0.047721,-1.581220, 0.699263
3.455490, -2.807722, 90.625224, 0.082031,-0.138672, 1.015625, -2.014160, -5.371094, -2.502441, 0.038607, -0.004208,0.710937,-0.702182,-0.060310,-0.049004,-1.581709, 0.688304
3.580194, -2.853174, 90.670413, 0.096191,-0.141113, 1.083008, 3.601074, -0.244141, -2.868652, 0.039650, -0.004718,0.711211,-0.701844,-0.062486,-0.049797,-1.582497, 0.673147
3.722202, -2.928530, 90.708457, 0.048828,-0.116699, 0.976074, 2.441406, -2.014160, -2.746582, 0.040985, -0.005151,0.711441,-0.701531,-0.064965,-0.051112,-1.583161, 0.658691
3.917166, -2.969717, 90.736905, 0.097168,-0.135742, 1.042480, -0.732422, -2.380371, -1.281738, 0.042433, -0.006119,0.711607,-0.701268,-0.068367,-0.051831,-1.583658, 0.630717
4.053276, -3.066581, 90.746474, 0.099121,-0.120605, 0.994629, -0.915527, 2.441406, -0.244141, 0.043865, -0.006374,0.711663,-0.701121,-0.070743,-0.053522,-1.583825, 0.630716
4.208869, -3.039059, 90.754527, 0.055176,-0.128418, 1.014648, 2.746582, 0.610352, -0.793457, 0.044646, -0.007513,0.711701,-0.701022,-0.073459,-0.053042,-1.583965, 0.614632
4.362314, -3.045556, 90.788302, 0.075684,-0.146484, 1.062500, 0.854492, 0.366211, -2.197266, 0.045623, -0.008439,0.711898,-0.700749,-0.076137,-0.053155,-1.584555, 0.600409
4.508662, -3.058412, 90.815705, 0.067871,-0.146484, 1.023926, 0.793457, 0.305176, -1.586914, 0.046595, -0.009281,0.712055,-0.700515,-0.078691,-0.053379,-1.585033, 0.585255
4.641252, -3.070853, 90.817262, 0.108887,-0.137695, 1.009277, 0.915527, 1.281738, 0.000000, 0.047483, -0.010029,0.712054,-0.700445,-0.081005,-0.053596,-1.585060, 0.571271
4.789496, -3.088096, 90.802010, 0.108887,-0.130371, 1.032715, -0.793457, 0.183105, 0.244141, 0.048497, -0.010838,0.711949,-0.700471,-0.083592,-0.053897,-1.584794, 0.556356
4.984719, -3.230615, 90.795644, 0.103516,-0.118164, 1.083008, -3.295898, -0.549316, -0.671387, 0.050574, -0.011175,0.711904,-0.700364,-0.087000,-0.056385,-1.584683, 0.541906
5.142319, -3.231982, 90.810684, 0.087891,-0.120117, 1.086426, -3.723145, -2.014160, -1.464844, 0.051544, -0.012152,0.711980,-0.700200,-0.089750,-0.056409,-1.584945, 0.528152
5.250386, -3.222106, 90.825076, 0.133301,-0.104492, 1.129883, -2.319336, 3.234863, -0.610352, 0.052142, -0.012891,0.712055,-0.700066,-0.091637,-0.056236,-1.585197, 0.510903
5.390850, -3.243108, 90.845833, 0.079102,-0.123047, 1.060059, -1.159668, 0.549316, -1.831055, 0.053128, -0.013645,0.712168,-0.699863,-0.094088,-0.056603,-1.585559, 0.495284
5.499405, -3.274995, 90.857984, 0.075195,-0.120117, 1.057129, -1.342773, 1.464844, -1.586914, 0.053987, -0.014130,0.712233,-0.699722,-0.095983,-0.057159,-1.585771, 0.479900
5.582985, -3.260548, 90.874437, 0.099121,-0.122070, 1.058594, 0.610352, -0.366211, -1.403809, 0.054405, -0.014746,0.712321,-0.699587,-0.097441,-0.056907,-1.586058, 0.451929
5.665445, -3.231415, 90.899777, 0.100098,-0.115723, 1.059570, 3.967285, 1.708984, -0.854492, 0.054725, -0.015449,0.712461,-0.699404,-0.098881,-0.056399,-1.586500, 0.433746
5.811368, -3.197706, 90.902270, 0.074707,-0.176270, 1.043945, 2.014160, -1.586914, 0.061035, 0.055406, -0.016563,0.712451,-0.699335,-0.101428,-0.055811,-1.586544, 0.433746
5.816887, -3.245831, 90.918144, 0.057129,-0.152344, 1.064941, -2.746582, -0.732422, -1.098633, 0.055736, -0.016311,0.712554,-0.699210,-0.101524,-0.056650,-1.586821, 0.419293
5.897297, -3.233485, 90.916696, 0.068359,-0.128906, 1.015625, -1.403809, -0.793457, 0.183105, 0.056150, -0.016886,0.712532,-0.699186,-0.102927,-0.056435,-1.586796, 0.403445
5.899230, -3.285511, 90.910057, 0.078613,-0.082520, 1.024902, 6.042480, 2.929688, 0.122070, 0.056485, -0.016576,0.712498,-0.699200,-0.102961,-0.057343,-1.586680, 0.386431
5.800248, -3.296813, 90.936626, 0.061035,-0.072754, 1.002441, 1.525879, -3.295898, -1.647949, 0.055948, -0.015904,0.712676,-0.699078,-0.101233,-0.057540,-1.587144, 0.394353
5.559681, -3.222519, 90.974213, 0.049805,-0.083984, 1.030273, -2.380371, -2.319336, -0.793457, 0.054014, -0.014881,0.712928,-0.698996,-0.097035,-0.056244,-1.587800, 0.447954
5.416551, -3.237521, 90.978051, 0.086914,-0.084961, 1.024902, -0.061035, -2.014160, 0.366211, 0.053234, -0.013900,0.712971,-0.699032,-0.094537,-0.056505,-1.587867, 0.447953
5.476944, -3.416514, 90.996910, 0.073730,-0.099121, 0.982910, 0.793457, -0.915527, -1.647949, 0.054711, -0.013190,0.713099,-0.698801,-0.095591,-0.059629,-1.588196, 0.340042
5.420729, -3.536683, 91.031621, 0.047363,-0.163086, 0.981934, -3.051758, -0.610352, -1.159668, 0.055110, -0.012122,0.713329,-0.698554,-0.094610,-0.061727,-1.588802, 0.340038
5.651769, -3.606830, 91.025344, 0.121094,-0.131348, 1.196289, -4.882812, 1.708984, -0.488281, 0.056954, -0.013128,0.713272,-0.698446,-0.098642,-0.062951,-1.588692, 0.304380
5.840228, -3.590060, 91.028977, 0.069336,-0.636230, 0.905273, -8.422852, -6.713867, -0.122070, 0.057999, -0.014406,0.713270,-0.698337,-0.101931,-0.062658,-1.588755, 0.204396
6.273016, -3.559516, 91.051455, 0.117676,-0.476074, 1.210449, -14.526367, 0.610352, -0.976562, 0.060443, -0.017298,0.713343,-0.697989,-0.109485,-0.062125,-1.589148, 0.204394
6.091096, -3.546254, 91.079644, 0.067383,-0.080566, 0.985352, 4.394531, 0.610352, -1.525879, 0.059248, -0.016261,0.713540,-0.697916,-0.106310,-0.061894,-1.589640, 0.170599
5.899461, -3.516815, 91.098276, 0.064941,-0.022461, 1.001465, 9.033203, 2.807617, -0.610352, 0.057896, -0.015257,0.713676,-0.697913,-0.102965,-0.061380,-1.589965, 0.250071
5.704326, -3.579834, 91.093311, 0.074219,-0.090820, 0.971191, -0.854492, -0.915527, 1.281738, 0.057099, -0.013654,0.713677,-0.698010,-0.099559,-0.062480,-1.589878, 0.237020
5.732162, -3.638974, 91.093079, 0.062988,-0.104492, 1.104492, -2.868652, 1.342773, -0.366211, 0.057636, -0.013466,0.713679,-0.697968,-0.100045,-0.063512,-1.589874, 0.237020
5.651033, -3.541897, 91.113556, 0.058594,-0.085938, 1.036621, 1.342773, 0.244141, -1.037598, 0.056537, -0.013564,0.713803,-0.697929,-0.098629,-0.061818,-1.590232, 0.222336
5.483661, -3.509832, 91.132550, 0.058594,-0.089844, 1.027832, -0.488281, 0.793457, 0.061035, 0.055316, -0.012727,0.713934,-0.697908,-0.095708,-0.061258,-1.590563, 0.202991
5.535478, -3.356575, 91.124634, 0.061523,-0.103027, 1.058105, -0.061035, 0.244141, 0.366211, 0.054680, -0.013982,0.713864,-0.698007,-0.096612,-0.058583,-1.590425, 0.236318
5.436681, -3.469852, 91.122879, 0.071289,-0.090332, 1.021484, 1.281738, 1.708984, 0.000000, 0.054782, -0.012673,0.713877,-0.698010,-0.094888,-0.060560,-1.590394, 0.221636
5.272531, -3.377502, 91.148997, 0.058594,-0.094727, 1.039062, 0.061035, 0.488281, -0.671387, 0.053206, -0.012227,0.714044,-0.697969,-0.092023,-0.058949,-1.590850, 0.186909
5.312956, -3.256334, 91.151094, 0.058594,-0.105469, 1.035156, 0.610352, 0.122070, 0.183105, 0.052699, -0.013220,0.714040,-0.697993,-0.092729,-0.056834,-1.590887, 0.180150
5.169919, -3.302558, 91.151115, 0.074707,-0.090332, 1.035156, 0.610352, 0.549316, 0.549316, 0.052115, -0.012046,0.714061,-0.698037,-0.090232,-0.057641,-1.590887, 0.162671
5.061780, -3.486917, 91.148519, 0.062988,-0.092285, 1.038574, -0.366211, 0.244141, 0.244141, 0.052602, -0.010245,0.714072,-0.698018,-0.088345,-0.060858,-1.590842, 0.188540
5.034398, -3.516472, 91.151566, 0.056152,-0.094238, 1.036621, 0.671387, 1.281738, -0.122070, 0.052619, -0.009896,0.714095,-0.697998,-0.087867,-0.061374,-1.590895, 0.168264
5.028897, -3.444155, 91.151777, 0.060059,-0.089355, 1.039062, 0.610352, 0.366211, 0.061035, 0.052136, -0.010303,0.714091,-0.698033,-0.087771,-0.060112,-1.590899, 0.118391
